time	DeviceName	AccX(g)	AccY(g)	AccZ(g)	AsX(°/s)	AsY(°/s)	AsZ(°/s)	AngleX(°)	AngleY(°)	AngleZ(°)	HX(uT)	HY(uT)	HZ(uT)	Q0()	Q1()	Q2()	Q3()	Temperature(°C)	Version()	Battery level(%)
2024-10-24 22:54:18.948	WT901BLE68(B2C0FB98454F)	-0.680	-0.727	0.100	-0.183	-1.099	-0.854	-81.49	42.75	157.15	29.988	24.304	-13.720	0.09378	0.39072	0.54211	-0.73792	26.3	13111	100
2024-10-24 22:54:19.98	WT901BLE68(B2C0FB98454F)	-0.677	-0.730	0.113	1.160	-0.977	-0.488	-81.38	42.67	157.13	29.988	24.304	-13.720	0.09378	0.39072	0.54211	-0.73792	26.3	13111	100
2024-10-24 22:54:19.129	WT901BLE68(B2C0FB98454F)	-0.677	-0.731	0.121	-0.122	-1.404	-0.549	-81.25	42.57	157.19	29.988	24.304	-13.720	0.09378	0.39072	0.54211	-0.73792	26.3	13111	100
2024-10-24 22:54:19.248	WT901BLE68(B2C0FB98454F)	-0.669	-0.739	0.125	0.366	-1.770	0.000	-81.07	42.53	157.20	29.694	24.206	-13.426	0.09378	0.39072	0.54211	-0.73792	26.3	13111	100
2024-10-24 22:54:19.399	WT901BLE68(B2C0FB98454F)	-0.674	-0.738	0.125	0.000	-1.099	0.122	-80.91	42.48	157.14	29.694	24.206	-13.426	0.08987	0.38998	0.53870	-0.74130	26.3	13111	100
2024-10-24 22:54:19.428	WT901BLE68(B2C0FB98454F)	-0.672	-0.738	0.122	0.122	-0.488	-0.061	-80.77	42.44	157.07	29.694	24.206	-13.426	0.08987	0.38998	0.53870	-0.74130	26.3	13111	100
2024-10-24 22:54:19.550	WT901BLE68(B2C0FB98454F)	-0.675	-0.738	0.127	0.183	-0.610	0.000	-80.71	42.40	156.92	29.792	24.206	-13.328	0.08987	0.38998	0.53870	-0.74130	26.3	13111	100
2024-10-24 22:54:19.608	WT901BLE68(B2C0FB98454F)	-0.703	-0.735	0.126	-0.244	-0.916	0.000	-80.61	42.35	156.81	29.792	24.206	-13.328	0.08987	0.38998	0.53870	-0.74130	26.3	13111	100
2024-10-24 22:54:19.760	WT901BLE68(B2C0FB98454F)	-0.672	-0.732	0.112	-1.160	-3.296	0.732	-80.51	42.31	156.80	29.792	24.206	-13.328	0.08621	0.39017	0.53555	-0.74393	26.3	13111	100
2024-10-24 22:54:19.939	WT901BLE68(B2C0FB98454F)	-0.642	-0.761	0.082	-4.578	-2.991	-2.380	-80.36	42.23	157.02	29.792	24.206	-13.328	0.08621	0.39017	0.53555	-0.74393	26.3	13111	100
2024-10-24 22:54:20.29	WT901BLE68(B2C0FB98454F)	-0.660	-0.738	0.131	-2.502	-4.517	-0.916	-80.61	41.90	156.92	29.792	24.206	-13.328	0.08621	0.39017	0.53555	-0.74393	26.3	13111	100
2024-10-24 22:54:20.30	WT901BLE68(B2C0FB98454F)	-0.604	-0.776	0.101	-8.972	-13.184	0.366	-80.19	41.82	157.71	29.400	24.108	-12.936	0.08621	0.39017	0.53555	-0.74393	26.3	13111	100
2024-10-24 22:54:20.208	WT901BLE68(B2C0FB98454F)	-0.616	-0.758	0.090	-21.606	-1.953	-9.949	-81.27	41.20	158.42	29.400	24.108	-12.936	0.09039	0.37390	0.55585	-0.73685	26.3	13111	100
2024-10-24 22:54:20.239	WT901BLE68(B2C0FB98454F)	-0.723	-0.756	0.082	-11.841	-13.855	-0.732	-82.17	40.43	158.23	29.400	24.108	-12.936	0.09039	0.37390	0.55585	-0.73685	26.3	13111	100
2024-10-24 22:54:20.359	WT901BLE68(B2C0FB98454F)	-0.606	-0.698	0.116	-27.893	-44.739	0.916	-81.62	40.01	161.74	29.302	23.422	-10.192	0.09039	0.37390	0.55585	-0.73685	26.3	13111	100
2024-10-24 22:54:20.420	WT901BLE68(B2C0FB98454F)	-0.654	-0.784	0.116	-6.958	-18.738	4.028	-80.74	40.06	163.93	29.302	23.422	-10.192	0.09039	0.37390	0.55585	-0.73685	26.3	13111	100
2024-10-24 22:54:20.538	WT901BLE68(B2C0FB98454F)	-0.587	-0.742	0.071	8.240	2.686	3.845	-80.02	40.19	162.88	29.302	23.422	-10.192	0.10172	0.36197	0.54828	-0.74695	26.3	13111	100
2024-10-24 22:54:20.629	WT901BLE68(B2C0FB98454F)	-0.610	-0.792	0.100	6.104	-11.108	9.094	-79.12	40.86	160.91	29.302	23.422	-10.192	0.10172	0.36197	0.54828	-0.74695	26.3	13111	100
2024-10-24 22:54:20.748	WT901BLE68(B2C0FB98454F)	-0.618	-0.771	0.080	24.475	0.793	10.193	-77.18	41.68	159.43	34.006	17.934	-9.604	0.10172	0.36197	0.54828	-0.74695	26.3	13111	100
2024-10-24 22:54:20.840	WT901BLE68(B2C0FB98454F)	-0.604	-0.756	0.141	19.958	1.099	11.108	-75.42	42.62	157.03	34.006	17.934	-9.604	0.10172	0.36197	0.54828	-0.74695	26.3	13111	100
2024-10-24 22:54:20.959	WT901BLE68(B2C0FB98454F)	-0.669	-0.845	0.173	20.325	5.249	21.729	-73.84	44.21	154.54	34.006	17.934	-9.604	0.05566	0.42459	0.46942	-0.77213	26.3	13111	100
2024-10-24 22:54:21.19	WT901BLE68(B2C0FB98454F)	-0.779	-0.821	0.130	-22.583	-3.052	14.526	-74.12	45.39	153.09	34.006	17.934	-9.604	0.05566	0.42459	0.46942	-0.77213	26.3	13111	100
2024-10-24 22:54:21.138	WT901BLE68(B2C0FB98454F)	-0.645	-0.714	-0.018	-72.266	57.861	-1.343	-81.70	46.22	147.35	41.062	12.642	-24.010	0.05566	0.42459	0.46942	-0.77213	26.3	13111	100
2024-10-24 22:54:21.229	WT901BLE68(B2C0FB98454F)	-0.687	-0.972	0.128	-103.821	-4.395	-83.313	-95.98	41.30	141.56	41.062	12.642	-24.010	0.05566	0.42459	0.46942	-0.77213	26.3	13111	100
2024-10-24 22:54:21.349	WT901BLE68(B2C0FB98454F)	-0.534	-0.724	0.042	-148.560	-42.542	-59.326	-104.23	35.59	148.69	41.062	12.642	-24.010	0.08487	0.35999	0.70840	-0.60104	26.3	13111	100
2024-10-24 22:54:21.439	WT901BLE68(B2C0FB98454F)	-0.373	-0.601	-0.035	-61.401	-20.630	-55.664	-110.22	31.61	153.20	41.062	12.642	-24.010	0.08487	0.35999	0.70840	-0.60104	26.3	13111	100
2024-10-24 22:54:21.558	WT901BLE68(B2C0FB98454F)	-0.717	-0.625	-0.288	-27.039	-77.148	-3.540	-109.31	31.81	162.09	23.814	37.240	-9.506	0.08487	0.35999	0.70840	-0.60104	26.3	13111	100
2024-10-24 22:54:21.680	WT901BLE68(B2C0FB98454F)	-0.807	-0.926	-0.676	-58.105	-39.063	-6.653	-108.69	34.38	170.58	23.814	37.240	-9.506	0.08487	0.35999	0.70840	-0.60104	26.3	13111	100
2024-10-24 22:54:21.781	WT901BLE68(B2C0FB98454F)	-0.949	-1.814	-0.242	-40.894	11.597	-29.785	-109.57	31.73	173.82	23.814	37.240	-9.506	0.21521	0.17065	0.79349	-0.54294	26.3	13111	100
2024-10-24 22:54:21.829	WT901BLE68(B2C0FB98454F)	-0.555	-1.201	0.236	25.330	-98.450	6.042	-107.65	32.91	-179.18	23.814	37.240	-9.506	0.21521	0.17065	0.79349	-0.54294	26.3	13111	100
2024-10-24 22:54:21.980	WT901BLE68(B2C0FB98454F)	-0.472	-1.024	0.123	21.362	-71.167	-11.841	-99.27	35.39	-169.48	20.090	38.710	-11.760	0.21521	0.17065	0.79349	-0.54294	26.3	13111	100
2024-10-24 22:54:22.39	WT901BLE68(B2C0FB98454F)	-0.638	-0.856	0.195	104.370	12.024	26.062	-89.66	36.30	-164.99	20.090	38.710	-11.760	0.21521	0.17065	0.79349	-0.54294	26.3	13111	100
2024-10-24 22:54:22.160	WT901BLE68(B2C0FB98454F)	-0.642	-0.753	0.075	46.692	-28.809	20.020	-81.42	38.29	-161.57	20.090	38.710	-11.760	0.33359	0.15393	0.62967	-0.68442	26.3	13111	100
2024-10-24 22:54:22.249	WT901BLE68(B2C0FB98454F)	-0.611	-0.813	0.103	56.335	14.709	29.114	-75.60	40.29	-160.24	20.090	38.710	-11.760	0.33359	0.15393	0.62967	-0.68442	26.3	13111	100
2024-10-24 22:54:22.374	WT901BLE68(B2C0FB98454F)	-0.762	-0.896	0.026	26.550	11.353	15.137	-72.17	42.64	-161.75	26.264	31.752	-29.302	0.33359	0.15393	0.62967	-0.68442	26.3	13111	100
2024-10-24 22:54:22.429	WT901BLE68(B2C0FB98454F)	-0.574	-0.945	0.010	-87.219	16.296	-5.859	-75.41	43.03	-165.35	26.264	31.752	-29.302	0.33359	0.15393	0.62967	-0.68442	26.3	13111	100
2024-10-24 22:54:22.549	WT901BLE68(B2C0FB98454F)	-0.415	-1.004	0.234	-200.745	-36.743	-53.345	-94.38	41.84	-173.08	26.264	31.752	-29.302	0.29224	0.14407	0.75482	-0.56918	26.3	13111	100
2024-10-24 22:54:22.640	WT901BLE68(B2C0FB98454F)	-0.464	-0.945	0.041	-172.302	-55.542	-48.828	-106.37	35.90	-169.93	26.264	31.752	-29.302	0.29224	0.14407	0.75482	-0.56918	26.3	13111	100
2024-10-24 22:54:22.759	WT901BLE68(B2C0FB98454F)	-0.515	-0.645	0.133	-83.740	-72.388	-60.852	-112.82	34.57	-157.15	26.264	31.752	-29.302	0.29224	0.14407	0.75482	-0.56918	26.3	13111	100
2024-10-24 22:54:22.849	WT901BLE68(B2C0FB98454F)	-0.616	-0.774	-0.165	-27.710	-121.338	-34.363	-109.42	34.29	-137.23	17.836	38.808	8.330	0.29224	0.14407	0.75482	-0.56918	26.3	13111	100
2024-10-24 22:54:23.29	WT901BLE68(B2C0FB98454F)	-0.146	-0.814	-0.450	-85.022	-86.487	-32.104	-107.69	36.08	-118.32	17.836	38.808	8.330	0.51782	-0.31516	0.72675	-0.32288	26.3	13111	100
2024-10-24 22:54:23.58	WT901BLE68(B2C0FB98454F)	-1.051	-1.027	-0.140	-56.091	-114.075	-51.514	-107.14	33.04	-105.45	17.836	38.808	8.330	0.51782	-0.31516	0.72675	-0.32288	26.3	13111	100
2024-10-24 22:54:23.180	WT901BLE68(B2C0FB98454F)	-0.209	1.272	-0.784	-90.759	-151.489	13.245	-108.35	33.09	-87.32	21.070	36.358	17.542	0.51782	-0.31516	0.72675	-0.32288	26.3	13111	100
2024-10-24 22:54:23.239	WT901BLE68(B2C0FB98454F)	-0.828	-0.726	0.093	3.723	-75.256	25.940	-100.18	37.45	-78.65	21.070	36.358	17.542	0.51782	-0.31516	0.72675	-0.32288	26.3	13111	100
2024-10-24 22:54:23.360	WT901BLE68(B2C0FB98454F)	-0.525	-0.649	0.035	-2.319	-82.153	14.832	-92.85	39.58	-60.25	21.070	36.358	17.542	0.51782	-0.31516	0.72675	-0.32288	26.3	13111	100
2024-10-24 22:54:23.449	WT901BLE68(B2C0FB98454F)	-0.644	-0.805	0.156	-13.733	-69.702	23.743	-86.26	41.92	-49.69	21.070	36.358	17.542	0.72189	-0.47150	0.50281	-0.06015	26.3	13111	100
2024-10-24 22:54:23.574	WT901BLE68(B2C0FB98454F)	-0.540	-0.660	0.113	7.263	-87.097	8.179	-79.33	42.09	-34.10	34.300	34.398	5.194	0.72189	-0.47150	0.50281	-0.06015	26.3	13111	100
2024-10-24 22:54:23.659	WT901BLE68(B2C0FB98454F)	-0.710	-0.891	0.052	29.968	-18.433	35.400	-72.65	43.23	-24.75	34.300	34.398	5.194	0.72189	-0.47150	0.50281	-0.06015	26.3	13111	100
2024-10-24 22:54:23.780	WT901BLE68(B2C0FB98454F)	-0.631	-0.883	-0.067	-1.404	-10.742	24.536	-69.24	43.92	-16.37	34.300	34.398	5.194	0.75583	-0.52396	0.36002	0.15646	26.3	13111	100
2024-10-24 22:54:23.839	WT901BLE68(B2C0FB98454F)	-0.464	-1.024	-0.015	-122.253	18.433	12.756	-75.43	45.16	-11.21	34.300	34.398	5.194	0.75583	-0.52396	0.36002	0.15646	26.3	13111	100
2024-10-24 22:54:23.959	WT901BLE68(B2C0FB98454F)	-0.538	-1.185	0.475	-144.592	-67.688	-91.980	-91.10	41.09	-7.63	34.300	34.398	5.194	0.75583	-0.52396	0.36002	0.15646	26.3	13111	100
2024-10-24 22:54:24.79	WT901BLE68(B2C0FB98454F)	-0.648	-0.857	0.144	-198.669	-93.140	-65.674	-100.65	35.26	8.36	37.240	24.206	21.658	0.75583	-0.52396	0.36002	0.15646	26.3	13111	100
2024-10-24 22:54:24.180	WT901BLE68(B2C0FB98454F)	-0.386	-0.571	0.036	-106.018	-57.495	-72.510	-107.30	30.99	19.43	37.240	24.206	21.658	0.50607	-0.80026	-0.03430	0.31967	26.3	13111	100
2024-10-24 22:54:24.259	WT901BLE68(B2C0FB98454F)	-0.454	-0.568	-0.153	-73.486	-82.703	-33.569	-109.01	28.45	27.41	37.240	24.206	21.658	0.50607	-0.80026	-0.03430	0.31967	26.3	13111	100
2024-10-24 22:54:24.380	WT901BLE68(B2C0FB98454F)	-0.787	-1.191	-0.784	-77.759	-65.857	-45.471	-108.56	28.76	38.02	40.572	18.130	22.932	0.50607	-0.80026	-0.03430	0.31967	26.3	13111	100
2024-10-24 22:54:24.482	WT901BLE68(B2C0FB98454F)	-0.655	-1.162	-0.385	46.387	-49.988	-30.701	-110.65	25.66	46.83	40.572	18.130	22.932	0.50607	-0.80026	-0.03430	0.31967	26.3	13111	100
2024-10-24 22:54:24.588	WT901BLE68(B2C0FB98454F)	-0.622	-1.124	0.488	144.775	-28.137	20.508	-111.13	26.95	52.54	40.572	18.130	22.932	0.43118	-0.74121	-0.22040	0.46475	26.3	13111	100
2024-10-24 22:54:24.649	WT901BLE68(B2C0FB98454F)	-0.452	-0.708	-0.074	55.908	-74.463	6.104	-102.38	30.05	57.51	40.572	18.130	22.932	0.43118	-0.74121	-0.22040	0.46475	26.3	13111	100
2024-10-24 22:54:24.774	WT901BLE68(B2C0FB98454F)	-0.647	-0.906	0.121	53.345	-65.308	27.588	-91.12	32.28	65.03	40.572	18.130	22.932	0.43118	-0.74121	-0.22040	0.46475	26.3	13111	100
2024-10-24 22:54:24.859	WT901BLE68(B2C0FB98454F)	-0.593	-0.729	0.096	75.684	-23.071	31.494	-81.33	35.12	73.33	48.216	18.620	-1.862	0.43118	-0.74121	-0.22040	0.46475	26.3	13111	100
2024-10-24 22:54:24.978	WT901BLE68(B2C0FB98454F)	-0.617	-0.855	0.094	52.551	5.249	25.146	-74.87	37.39	77.15	48.216	18.620	-1.862	0.43118	-0.74121	-0.22040	0.46475	26.3	13111	100
2024-10-24 22:54:25.79	WT901BLE68(B2C0FB98454F)	-0.738	-0.910	-0.006	15.503	5.432	18.188	-72.32	39.61	78.28	48.216	18.620	-1.862	0.46042	-0.60413	-0.13840	0.63544	26.3	13111	100
2024-10-24 22:54:25.189	WT901BLE68(B2C0FB98454F)	-0.730	-0.955	0.070	-105.042	51.453	-2.625	-78.13	39.94	77.27	49.000	15.582	0.000	0.46042	-0.60413	-0.13840	0.63544	26.3	13111	100
2024-10-24 22:54:25.249	WT901BLE68(B2C0FB98454F)	-0.499	-1.008	0.254	-148.071	-49.927	-80.750	-94.18	35.65	73.11	49.000	15.582	0.000	0.46042	-0.60413	-0.13840	0.63544	26.3	13111	100
2024-10-24 22:54:25.400	WT901BLE68(B2C0FB98454F)	-0.467	-0.871	0.078	-138.245	-30.457	-59.692	-105.73	30.28	78.18	49.000	15.582	0.000	0.46042	-0.60413	-0.13840	0.63544	26.3	13111	100
2024-10-24 22:54:25.457	WT901BLE68(B2C0FB98454F)	-0.605	-0.561	0.039	-65.613	-54.626	-73.181	-111.40	25.88	84.35	49.000	15.582	0.000	0.28177	-0.68179	-0.44775	0.50513	26.3	13111	100
2024-10-24 22:54:25.582	WT901BLE68(B2C0FB98454F)	-0.533	-0.706	-0.250	-77.209	-123.962	0.732	-110.61	26.35	95.00	49.000	15.582	0.000	0.28177	-0.68179	-0.44775	0.50513	26.3	13111	100
2024-10-24 22:54:25.679	WT901BLE68(B2C0FB98454F)	-0.814	-0.603	-0.516	-18.616	-30.945	-25.208	-113.32	29.13	102.56	41.944	22.050	3.038	0.28177	-0.68179	-0.44775	0.50513	26.3	13111	100
2024-10-24 22:54:25.789	WT901BLE68(B2C0FB98454F)	-0.550	-0.860	0.058	5.005	-67.993	-26.611	-109.70	27.46	108.95	41.944	22.050	3.038	0.12100	-0.54327	-0.59183	0.58295	26.3	13111	100
2024-10-24 22:54:25.881	WT901BLE68(B2C0FB98454F)	-0.422	-0.707	-0.012	118.469	-53.589	28.198	-107.21	30.13	116.71	41.944	22.050	3.038	0.12100	-0.54327	-0.59183	0.58295	26.3	13111	100
2024-10-24 22:54:25.999	WT901BLE68(B2C0FB98454F)	-0.618	-0.906	0.139	-7.813	-94.910	4.883	-98.54	33.47	125.99	36.652	24.990	-15.680	0.12100	-0.54327	-0.59183	0.58295	26.3	13111	100
2024-10-24 22:54:26.59	WT901BLE68(B2C0FB98454F)	-0.554	-0.731	0.089	59.631	-35.767	9.644	-92.38	34.12	134.13	36.652	24.990	-15.680	0.12100	-0.54327	-0.59183	0.58295	26.3	13111	100
2024-10-24 22:54:26.179	WT901BLE68(B2C0FB98454F)	-0.535	-0.820	0.015	-1.709	-58.105	10.254	-86.41	35.51	138.89	36.652	24.990	-15.680	0.12100	-0.54327	-0.59183	0.58295	26.3	13111	100
2024-10-24 22:54:26.280	WT901BLE68(B2C0FB98454F)	-0.553	-0.845	-0.056	1.526	-25.757	5.371	-83.44	35.57	145.02	36.652	24.990	-15.680	0.01880	-0.40756	-0.53708	0.73822	26.3	13111	100
2024-10-24 22:54:26.388	WT901BLE68(B2C0FB98454F)	-0.849	-1.075	-0.005	-131.897	-41.687	-31.738	-87.74	33.70	147.55	36.652	24.990	-15.680	0.01880	-0.40756	-0.53708	0.73822	26.3	13111	100
2024-10-24 22:54:26.480	WT901BLE68(B2C0FB98454F)	-0.252	-0.763	-0.054	-94.849	134.644	-10.864	-105.86	31.39	143.06	23.520	29.988	-8.918	0.01880	-0.40756	-0.53708	0.73822	26.3	13111	100
2024-10-24 22:54:26.599	WT901BLE68(B2C0FB98454F)	-0.525	-0.871	0.063	-95.398	-77.393	-50.659	-112.33	28.22	143.45	23.520	29.988	-8.918	0.01880	-0.40756	-0.53708	0.73822	26.3	13111	100
2024-10-24 22:54:26.659	WT901BLE68(B2C0FB98454F)	-0.674	-0.577	0.026	-37.048	-150.024	-25.940	-110.97	29.65	160.26	23.520	29.988	-8.918	-0.14441	-0.25110	-0.76450	0.57578	26.3	13111	100
2024-10-24 22:54:26.782	WT901BLE68(B2C0FB98454F)	-0.720	-0.929	-0.251	-2.808	-112.915	-10.132	-103.66	33.59	-177.35	23.520	29.988	-8.918	-0.14441	-0.25110	-0.76450	0.57578	26.3	13111	100
2024-10-24 22:54:26.880	WT901BLE68(B2C0FB98454F)	-0.638	-0.717	0.062	-24.780	-133.484	2.808	-99.33	36.23	-157.19	6.566	26.166	13.328	-0.14441	-0.25110	-0.76450	0.57578	26.3	13111	100
2024-10-24 22:54:26.988	WT901BLE68(B2C0FB98454F)	-0.560	0.097	0.316	-87.585	14.465	25.940	-100.20	36.74	-144.69	6.566	26.166	13.328	-0.14441	-0.25110	-0.76450	0.57578	26.3	13111	100
2024-10-24 22:54:27.80	WT901BLE68(B2C0FB98454F)	-0.577	-0.829	-0.127	-108.826	-14.221	-28.748	-102.95	36.93	-136.66	6.566	26.166	13.328	-0.44946	0.10120	-0.76593	0.44830	26.3	13111	100
2024-10-24 22:54:27.199	WT901BLE68(B2C0FB98454F)	-0.499	-0.815	-0.184	-36.133	-14.160	-12.695	-106.55	36.01	-130.29	6.566	26.166	13.328	-0.44946	0.10120	-0.76593	0.44830	26.3	13111	100
2024-10-24 22:54:27.288	WT901BLE68(B2C0FB98454F)	-0.653	-0.823	-0.233	-24.780	6.897	-10.925	-108.10	35.15	-125.77	2.842	35.182	11.956	-0.44946	0.10120	-0.76593	0.44830	26.3	13111	100
2024-10-24 22:54:27.410	WT901BLE68(B2C0FB98454F)	-0.371	-0.647	-0.210	-17.578	38.635	-44.128	-111.42	32.45	-124.00	2.842	35.182	11.956	-0.44946	0.10120	-0.76593	0.44830	26.3	13111	100
2024-10-24 22:54:27.480	WT901BLE68(B2C0FB98454F)	-0.292	-0.981	-0.249	-51.941	42.908	-59.082	-114.49	26.12	-125.96	2.842	35.182	11.956	-0.39410	0.27890	-0.79071	0.37622	26.3	13111	100
2024-10-24 22:54:27.588	WT901BLE68(B2C0FB98454F)	-0.158	-0.741	-0.390	-63.599	51.514	-57.739	-121.92	19.40	-126.94	2.842	35.182	11.956	-0.39410	0.27890	-0.79071	0.37622	26.3	13111	100
2024-10-24 22:54:27.680	WT901BLE68(B2C0FB98454F)	-0.061	-0.608	-0.637	-98.328	15.503	-70.251	-128.38	12.30	-126.62	-2.254	35.868	8.134	-0.39410	0.27890	-0.79071	0.37622	26.3	13111	100
2024-10-24 22:54:27.799	WT901BLE68(B2C0FB98454F)	0.384	-0.745	-0.626	-88.623	65.735	-66.650	-136.16	3.59	-126.32	-2.254	35.868	8.134	-0.39410	0.27890	-0.79071	0.37622	26.3	13111	100
2024-10-24 22:54:27.887	WT901BLE68(B2C0FB98454F)	0.043	-0.547	-1.002	-135.498	12.756	-50.476	-146.88	-4.76	-124.87	-2.254	35.868	8.134	-0.08511	0.45956	-0.84561	0.25757	26.3	13111	100
2024-10-24 22:54:28.39	WT901BLE68(B2C0FB98454F)	0.334	-0.449	-1.143	-33.081	30.457	5.127	-154.15	-7.59	-124.23	-2.254	35.868	8.134	-0.08511	0.45956	-0.84561	0.25757	26.3	13111	100
2024-10-24 22:54:28.98	WT901BLE68(B2C0FB98454F)	0.389	-0.340	-0.893	-10.193	51.208	11.292	-156.44	-10.76	-127.43	-11.760	19.306	31.360	-0.08511	0.45956	-0.84561	0.25757	26.3	13111	100
2024-10-24 22:54:28.188	WT901BLE68(B2C0FB98454F)	0.510	-0.294	-0.740	-6.042	38.208	13.489	-156.26	-14.72	-132.03	-11.760	19.306	31.360	-0.08511	0.45956	-0.84561	0.25757	26.3	13111	100
2024-10-24 22:54:28.280	WT901BLE68(B2C0FB98454F)	0.143	-0.340	-0.883	-7.629	7.019	28.870	-157.03	-16.15	-137.67	-11.760	19.306	31.360	0.05975	0.36084	-0.90216	0.22855	26.3	13111	100
2024-10-24 22:54:28.429	WT901BLE68(B2C0FB98454F)	0.149	-0.362	-0.867	-2.625	-23.865	18.372	-157.61	-14.20	-142.76	-11.760	19.306	31.360	0.05975	0.36084	-0.90216	0.22855	26.3	13111	100
2024-10-24 22:54:28.488	WT901BLE68(B2C0FB98454F)	0.341	-0.400	-0.927	-0.488	7.446	19.226	-157.12	-12.82	-145.75	-10.584	20.384	30.968	0.05975	0.36084	-0.90216	0.22855	26.3	13111	100
2024-10-24 22:54:28.609	WT901BLE68(B2C0FB98454F)	0.285	-0.367	-0.833	-10.986	17.456	24.048	-157.36	-13.75	-149.39	-10.584	20.384	30.968	0.05975	0.36084	-0.90216	0.22855	26.3	13111	100
2024-10-24 22:54:28.699	WT901BLE68(B2C0FB98454F)	0.261	-0.397	-0.910	-12.146	6.958	25.330	-157.96	-13.74	-154.52	-10.584	20.384	30.968	0.07462	0.23056	-0.94751	0.20834	26.3	13111	100
2024-10-24 22:54:28.819	WT901BLE68(B2C0FB98454F)	0.275	-0.356	-0.902	-10.437	9.583	24.963	-158.43	-13.80	-159.60	-10.584	20.384	30.968	0.07462	0.23056	-0.94751	0.20834	26.3	13111	100
2024-10-24 22:54:28.880	WT901BLE68(B2C0FB98454F)	0.272	-0.376	-0.894	-9.033	8.240	27.832	-158.65	-13.73	-164.83	-7.546	20.384	34.496	0.07462	0.23056	-0.94751	0.20834	26.3	13111	100
2024-10-24 22:54:28.998	WT901BLE68(B2C0FB98454F)	0.268	-0.385	-0.894	-13.428	6.165	30.457	-158.99	-13.44	-170.71	-7.546	20.384	34.496	0.07462	0.23056	-0.94751	0.20834	26.3	13111	100
2024-10-24 22:54:29.88	WT901BLE68(B2C0FB98454F)	0.266	-0.342	-0.906	-9.338	4.333	28.198	-159.48	-13.05	-176.67	-7.546	20.384	34.496	0.10916	0.03125	-0.97772	0.17621	26.3	13111	100
2024-10-24 22:54:29.209	WT901BLE68(B2C0FB98454F)	0.275	-0.349	-0.906	-7.507	7.141	23.804	-159.64	-12.94	177.84	-7.546	20.384	34.496	0.10916	0.03125	-0.97772	0.17621	26.3	13111	100
2024-10-24 22:54:29.299	WT901BLE68(B2C0FB98454F)	0.296	-0.335	-0.909	-6.653	10.071	19.165	-159.79	-13.21	172.76	-4.606	19.796	38.318	0.10916	0.03125	-0.97772	0.17621	26.3	13111	100
2024-10-24 22:54:29.419	WT901BLE68(B2C0FB98454F)	0.293	-0.345	-0.900	-4.578	6.531	13.916	-159.89	-13.67	168.11	-4.606	19.796	38.318	0.10916	0.03125	-0.97772	0.17621	26.3	13111	100
2024-10-24 22:54:29.480	WT901BLE68(B2C0FB98454F)	0.284	-0.349	-0.893	1.282	4.150	7.874	-159.65	-14.02	164.21	-4.606	19.796	38.318	0.14648	-0.12668	-0.96872	0.15475	26.3	13111	100
2024-10-24 22:54:29.629	WT901BLE68(B2C0FB98454F)	0.279	-0.372	-0.888	2.502	2.686	0.732	-159.33	-14.30	161.07	-4.606	19.796	38.318	0.14648	-0.12668	-0.96872	0.15475	26.3	13111	100
2024-10-24 22:54:29.688	WT901BLE68(B2C0FB98454F)	0.263	-0.344	-0.894	1.282	0.305	-1.953	-159.30	-14.62	158.62	-4.704	20.188	39.004	0.14648	-0.12668	-0.96872	0.15475	26.3	13111	100
2024-10-24 22:54:29.808	WT901BLE68(B2C0FB98454F)	0.273	-0.361	-0.898	0.488	-1.160	-1.953	-159.24	-14.72	156.58	-4.704	20.188	39.004	0.14648	-0.12668	-0.96872	0.15475	26.3	13111	100
