time	DeviceName	AccX(g)	AccY(g)	AccZ(g)	AsX(°/s)	AsY(°/s)	AsZ(°/s)	AngleX(°)	AngleY(°)	AngleZ(°)	HX(uT)	HY(uT)	HZ(uT)	Q0()	Q1()	Q2()	Q3()	Temperature(°C)	Version()	Battery level(%)
2024-10-24 22:49:19.207	WT901BLE68(B2C0FB98454F)	0.056	-0.711	0.003	-34.912	-108.276	5.798	-85.55	2.44	162.47	12.054	38.514	-19.110	-0.03940	0.06985	0.73511	-0.67310	27.1	13111	100
2024-10-24 22:49:19.387	WT901BLE68(B2C0FB98454F)	-0.273	-0.962	-0.063	-28.320	56.641	3.296	-87.11	2.76	163.49	13.132	36.848	-27.048	-0.03940	0.06985	0.73511	-0.67310	27.1	13111	100
2024-10-24 22:49:19.418	WT901BLE68(B2C0FB98454F)	0.068	-1.021	0.061	-21.240	16.479	8.972	-89.96	3.47	157.01	13.132	36.848	-27.048	-0.03940	0.06985	0.73511	-0.67310	27.1	13111	100
2024-10-24 22:49:19.537	WT901BLE68(B2C0FB98454F)	-0.115	-1.007	-0.031	-8.057	-0.916	3.662	-90.79	4.24	157.86	13.132	36.848	-27.048	-0.10849	0.16248	0.69446	-0.69241	27.1	13111	100
2024-10-24 22:49:19.597	WT901BLE68(B2C0FB98454F)	-0.113	-0.994	-0.037	-16.296	30.334	4.578	-92.17	4.40	155.40	13.132	36.848	-27.048	-0.10849	0.16248	0.69446	-0.69241	27.1	13111	100
2024-10-24 22:49:19.718	WT901BLE68(B2C0FB98454F)	-0.083	-1.006	-0.033	-12.878	2.747	6.836	-93.78	5.05	153.57	16.954	38.220	-20.580	-0.10849	0.16248	0.69446	-0.69241	27.1	13111	100
2024-10-24 22:49:19.808	WT901BLE68(B2C0FB98454F)	-0.104	-1.021	-0.033	-3.967	-0.793	-5.188	-94.60	5.15	152.91	16.954	38.220	-20.580	-0.10849	0.16248	0.69446	-0.69241	27.1	13111	100
2024-10-24 22:49:19.959	WT901BLE68(B2C0FB98454F)	-0.052	-0.968	-0.103	-8.301	-11.963	-1.099	-94.92	4.83	153.58	16.954	38.220	-20.580	-0.12189	0.19522	0.71262	-0.66266	27.1	13111	100
2024-10-24 22:49:20.18	WT901BLE68(B2C0FB98454F)	-0.026	-1.007	-0.088	-8.606	6.531	2.686	-95.86	5.02	153.42	16.954	38.220	-20.580	-0.12189	0.19522	0.71262	-0.66266	27.1	13111	100
2024-10-24 22:49:20.139	WT901BLE68(B2C0FB98454F)	-0.045	-0.993	-0.118	-5.127	12.024	5.554	-96.41	5.17	152.02	17.444	38.808	-17.836	-0.12189	0.19522	0.71262	-0.66266	27.1	13111	100
2024-10-24 22:49:20.198	WT901BLE68(B2C0FB98454F)	-0.066	-1.013	-0.169	-4.517	28.259	2.991	-97.20	5.08	149.31	17.444	38.808	-17.836	-0.12189	0.19522	0.71262	-0.66266	27.1	13111	100
2024-10-24 22:49:20.318	WT901BLE68(B2C0FB98454F)	-0.047	-1.005	-0.120	-4.333	1.404	4.395	-97.64	5.10	148.11	17.444	38.808	-17.836	-0.14795	0.23767	0.71570	-0.63977	27.1	13111	100
2024-10-24 22:49:20.407	WT901BLE68(B2C0FB98454F)	-0.032	-0.998	-0.120	-7.202	-1.221	9.949	-98.09	5.75	147.56	17.444	38.808	-17.836	-0.14795	0.23767	0.71570	-0.63977	27.1	13111	100
2024-10-24 22:49:20.529	WT901BLE68(B2C0FB98454F)	-0.064	-0.970	-0.139	-9.216	-13.000	13.611	-98.68	6.70	147.66	20.188	38.710	-14.994	-0.14795	0.23767	0.71570	-0.63977	27.1	13111	100
2024-10-24 22:49:20.617	WT901BLE68(B2C0FB98454F)	-0.025	-0.980	-0.113	-4.395	-11.108	13.184	-99.18	7.93	147.77	20.188	38.710	-14.994	-0.14795	0.23767	0.71570	-0.63977	27.1	13111	100
2024-10-24 22:49:20.739	WT901BLE68(B2C0FB98454F)	0.024	-1.036	-0.142	2.747	-15.381	13.794	-99.07	9.35	148.32	20.188	38.710	-14.994	-0.11386	0.25778	0.71396	-0.64090	27.1	13111	100
2024-10-24 22:49:20.829	WT901BLE68(B2C0FB98454F)	0.012	-1.036	-0.195	21.301	-17.517	18.311	-97.39	10.59	149.13	20.188	38.710	-14.994	-0.11386	0.25778	0.71396	-0.64090	27.1	13111	100
2024-10-24 22:49:20.949	WT901BLE68(B2C0FB98454F)	-0.110	-1.137	-0.032	43.152	19.531	-1.221	-94.82	10.90	147.02	24.304	36.554	-19.208	-0.11386	0.25778	0.71396	-0.64090	27.1	13111	100
2024-10-24 22:49:21.8	WT901BLE68(B2C0FB98454F)	0.354	-0.820	0.116	92.957	-1.404	-61.523	-87.44	6.92	146.28	24.304	36.554	-19.208	-0.11386	0.25778	0.71396	-0.64090	27.1	13111	100
2024-10-24 22:49:21.129	WT901BLE68(B2C0FB98454F)	-0.088	-1.231	0.096	12.390	-5.737	-93.811	-81.93	-1.90	148.72	24.304	36.554	-19.208	-0.24716	0.14728	0.63528	-0.71661	27.1	13111	100
2024-10-24 22:49:21.218	WT901BLE68(B2C0FB98454F)	0.035	-0.994	0.176	19.287	70.251	-68.115	-79.37	-9.32	142.27	24.304	36.554	-19.208	-0.24716	0.14728	0.63528	-0.71661	27.1	13111	100
2024-10-24 22:49:21.339	WT901BLE68(B2C0FB98454F)	0.534	-0.724	0.167	-19.470	-1.587	-37.109	-78.78	-14.49	138.73	8.722	36.652	-30.772	-0.24716	0.14728	0.63528	-0.71661	27.1	13111	100
2024-10-24 22:49:21.428	WT901BLE68(B2C0FB98454F)	0.419	-0.853	0.223	-38.818	66.772	13.916	-81.52	-14.52	137.99	8.722	36.652	-30.772	-0.24716	0.14728	0.63528	-0.71661	27.1	13111	100
2024-10-24 22:49:21.549	WT901BLE68(B2C0FB98454F)	0.040	-1.065	0.594	-5.066	46.814	-16.846	-82.52	-13.94	129.61	8.722	36.652	-30.772	-0.40198	0.20139	0.62717	-0.63596	27.1	13111	100
2024-10-24 22:49:21.608	WT901BLE68(B2C0FB98454F)	0.038	-1.210	0.502	-16.724	-4.578	18.921	-83.50	-12.06	127.42	8.722	36.652	-30.772	-0.40198	0.20139	0.62717	-0.63596	27.1	13111	100
2024-10-24 22:49:21.730	WT901BLE68(B2C0FB98454F)	-0.084	-1.222	-0.191	-23.193	25.085	58.289	-88.09	-7.77	131.62	16.856	39.592	-20.580	-0.40198	0.20139	0.62717	-0.63596	27.1	13111	100
2024-10-24 22:49:21.818	WT901BLE68(B2C0FB98454F)	0.073	-1.010	-0.147	-43.823	-51.941	32.227	-92.60	-2.50	134.05	16.856	39.592	-20.580	-0.40198	0.20139	0.62717	-0.63596	27.1	13111	100
2024-10-24 22:49:21.939	WT901BLE68(B2C0FB98454F)	0.003	-0.948	-0.146	-45.593	-28.259	48.584	-97.10	2.00	138.36	16.856	39.592	-20.580	-0.20172	0.29150	0.70364	-0.61572	27.1	13111	100
2024-10-24 22:49:22.29	WT901BLE68(B2C0FB98454F)	0.022	-0.993	-0.067	-26.672	-21.912	38.879	-100.33	6.25	138.57	16.856	39.592	-20.580	-0.20172	0.29150	0.70364	-0.61572	27.1	13111	100
2024-10-24 22:49:22.149	WT901BLE68(B2C0FB98454F)	0.224	-1.041	-0.239	-14.343	-27.222	37.964	-101.94	9.88	139.25	28.518	37.044	-11.074	-0.20172	0.29150	0.70364	-0.61572	27.1	13111	100
2024-10-24 22:49:22.269	WT901BLE68(B2C0FB98454F)	-0.464	-1.226	-0.219	3.174	-27.649	-0.427	-101.80	12.31	140.63	28.518	37.044	-11.074	-0.20172	0.29150	0.70364	-0.61572	27.1	13111	100
2024-10-24 22:49:22.359	WT901BLE68(B2C0FB98454F)	-0.058	-0.959	0.052	98.450	-115.356	-81.909	-95.21	8.17	145.95	28.518	37.044	-11.074	-0.15338	0.17838	0.67804	-0.69629	27.1	13111	100
2024-10-24 22:49:22.418	WT901BLE68(B2C0FB98454F)	-0.179	-1.304	0.040	75.562	-84.839	-77.271	-86.25	-0.44	155.99	28.518	37.044	-11.074	-0.15338	0.17838	0.67804	-0.69629	27.1	13111	100
2024-10-24 22:49:22.539	WT901BLE68(B2C0FB98454F)	0.019	-0.956	0.032	26.550	15.564	-83.557	-81.74	-7.81	156.49	9.212	36.848	-33.124	-0.15338	0.17838	0.67804	-0.69629	27.1	13111	100
2024-10-24 22:49:22.629	WT901BLE68(B2C0FB98454F)	0.393	-0.660	0.041	-41.443	-7.446	-24.109	-83.80	-12.80	157.32	9.212	36.848	-33.124	-0.15338	0.17838	0.67804	-0.69629	27.1	13111	100
2024-10-24 22:49:22.749	WT901BLE68(B2C0FB98454F)	0.069	-1.004	0.192	-46.387	42.419	22.217	-86.80	-10.65	154.00	9.212	36.848	-33.124	-0.22449	0.09793	0.69620	-0.67468	27.1	13111	100
2024-10-24 22:49:22.839	WT901BLE68(B2C0FB98454F)	-0.201	-1.784	-0.171	36.682	-3.113	17.456	-89.74	-9.67	153.40	9.212	36.848	-33.124	-0.22449	0.09793	0.69620	-0.67468	27.1	13111	100
2024-10-24 22:49:22.959	WT901BLE68(B2C0FB98454F)	-0.250	-1.152	-0.209	-56.274	-65.796	51.941	-91.83	-6.68	156.37	11.074	40.866	-23.226	-0.22449	0.09793	0.69620	-0.67468	27.1	13111	100
2024-10-24 22:49:23.18	WT901BLE68(B2C0FB98454F)	0.158	-1.029	-0.119	-29.541	-38.086	7.935	-93.83	-3.26	158.03	11.074	40.866	-23.226	-0.22449	0.09793	0.69620	-0.67468	27.1	13111	100
2024-10-24 22:49:23.140	WT901BLE68(B2C0FB98454F)	-0.034	-1.015	-0.240	-15.686	-107.117	10.376	-96.02	-0.65	168.78	11.074	40.866	-23.226	-0.04971	0.05719	0.74594	-0.66162	27.1	13111	100
2024-10-24 22:49:23.229	WT901BLE68(B2C0FB98454F)	0.129	-0.997	-0.086	-2.441	-86.365	18.982	-97.03	1.54	174.74	11.074	40.866	-23.226	-0.04971	0.05719	0.74594	-0.66162	27.1	13111	100
2024-10-24 22:49:23.352	WT901BLE68(B2C0FB98454F)	-0.131	-1.015	-0.046	11.658	-116.089	-9.338	-96.18	3.01	-176.41	7.448	41.356	-21.756	-0.04971	0.05719	0.74594	-0.66162	27.1	13111	100
2024-10-24 22:49:23.439	WT901BLE68(B2C0FB98454F)	-0.126	-1.036	-0.109	37.781	-124.390	-28.748	-93.20	1.53	-166.50	7.448	41.356	-21.756	-0.04971	0.05719	0.74594	-0.66162	27.1	13111	100
2024-10-24 22:49:23.559	WT901BLE68(B2C0FB98454F)	0.144	-1.064	0.243	98.999	-135.620	-50.415	-85.65	-2.87	-155.14	7.448	41.356	-21.756	0.18655	-0.23154	0.60913	-0.73514	27.1	13111	100
2024-10-24 22:49:23.650	WT901BLE68(B2C0FB98454F)	0.240	-0.460	0.007	56.824	-161.987	-29.907	-79.69	-8.92	-139.77	7.448	41.356	-21.756	0.18655	-0.23154	0.60913	-0.73514	27.1	13111	100
2024-10-24 22:49:23.769	WT901BLE68(B2C0FB98454F)	0.149	-0.735	0.099	3.967	7.874	15.442	-76.90	-9.39	-138.28	-12.054	33.320	-32.242	0.18655	-0.23154	0.60913	-0.73514	27.1	13111	100
2024-10-24 22:49:23.829	WT901BLE68(B2C0FB98454F)	0.287	-0.876	0.401	-21.667	34.058	37.903	-77.89	-6.24	-143.74	-12.054	33.320	-32.242	0.18655	-0.23154	0.60913	-0.73514	27.1	13111	100
2024-10-24 22:49:23.949	WT901BLE68(B2C0FB98454F)	0.239	-1.020	0.555	21.790	-15.930	12.451	-77.77	-4.26	-144.85	-12.054	33.320	-32.242	0.21155	-0.22141	0.59305	-0.74460	27.1	13111	100
2024-10-24 22:49:24.39	WT901BLE68(B2C0FB98454F)	0.124	-1.127	0.061	-37.903	-1.526	12.329	-79.23	-4.05	-144.99	-12.054	33.320	-32.242	0.21155	-0.22141	0.59305	-0.74460	27.1	13111	100
2024-10-24 22:49:24.159	WT901BLE68(B2C0FB98454F)	-0.228	-1.135	-0.199	-83.679	-156.982	45.044	-82.56	-2.48	-143.30	-7.546	38.808	-24.304	0.21155	-0.22141	0.59305	-0.74460	27.1	13111	100
2024-10-24 22:49:24.249	WT901BLE68(B2C0FB98454F)	0.077	-0.980	-0.088	-36.804	-11.292	24.536	-87.54	0.20	-139.91	-7.546	38.808	-24.304	0.21155	-0.22141	0.59305	-0.74460	27.1	13111	100
2024-10-24 22:49:24.369	WT901BLE68(B2C0FB98454F)	-0.074	-0.972	-0.087	-33.875	-45.837	24.231	-91.63	2.67	-135.05	-7.546	38.808	-24.304	0.28702	-0.25482	0.68393	-0.62033	27.1	13111	100
2024-10-24 22:49:24.429	WT901BLE68(B2C0FB98454F)	-0.083	-0.980	-0.059	-24.353	10.559	28.992	-94.53	5.26	-136.14	-7.546	38.808	-24.304	0.28702	-0.25482	0.68393	-0.62033	27.1	13111	100
2024-10-24 22:49:24.549	WT901BLE68(B2C0FB98454F)	-0.027	-0.981	-0.126	-21.973	-15.381	31.799	-96.86	7.85	-137.59	-0.490	43.512	-9.310	0.28702	-0.25482	0.68393	-0.62033	27.1	13111	100
2024-10-24 22:49:24.698	WT901BLE68(B2C0FB98454F)	0.168	-1.014	-0.180	-13.855	-18.372	30.273	-98.66	10.77	-138.26	-0.490	43.512	-9.310	0.28702	-0.25482	0.68393	-0.62033	27.1	13111	100
2024-10-24 22:49:24.759	WT901BLE68(B2C0FB98454F)	-0.321	-1.158	-0.231	-2.380	0.427	16.479	-99.45	12.78	-140.11	-0.490	43.512	-9.310	0.28687	-0.18506	0.73178	-0.58978	27.1	13111	100
2024-10-24 22:49:24.849	WT901BLE68(B2C0FB98454F)	0.029	-1.034	0.137	88.379	-56.396	-53.345	-96.43	10.73	-141.02	-0.490	43.512	-9.310	0.28687	-0.18506	0.73178	-0.58978	27.1	13111	100
2024-10-24 22:49:24.969	WT901BLE68(B2C0FB98454F)	-0.119	-1.267	-0.124	77.515	-105.652	-131.409	-84.80	1.26	-132.48	-11.270	39.886	-17.640	0.28687	-0.18506	0.73178	-0.58978	27.1	13111	100
2024-10-24 22:49:25.29	WT901BLE68(B2C0FB98454F)	-0.191	-0.976	0.011	21.851	50.232	-87.952	-82.13	-8.67	-131.29	-11.270	39.886	-17.640	0.28687	-0.18506	0.73178	-0.58978	27.1	13111	100
2024-10-24 22:49:25.180	WT901BLE68(B2C0FB98454F)	0.314	-0.705	0.211	-13.855	20.325	-63.293	-81.21	-15.38	-136.27	-11.270	39.886	-17.640	0.19568	-0.34866	0.57104	-0.71689	27.1	13111	100
2024-10-24 22:49:25.239	WT901BLE68(B2C0FB98454F)	0.633	-0.742	0.265	-40.771	-16.052	22.949	-85.09	-15.22	-134.03	-11.270	39.886	-17.640	0.19568	-0.34866	0.57104	-0.71689	27.1	13111	100
2024-10-24 22:49:25.358	WT901BLE68(B2C0FB98454F)	-0.118	-1.149	0.313	-39.368	43.335	7.141	-86.59	-12.02	-138.58	-19.110	35.182	-18.522	0.19568	-0.34866	0.57104	-0.71689	27.1	13111	100
2024-10-24 22:49:25.449	WT901BLE68(B2C0FB98454F)	0.129	-1.100	0.259	38.879	-31.494	-4.333	-85.32	-11.28	-140.00	-19.110	35.182	-18.522	0.19568	-0.34866	0.57104	-0.71689	27.1	13111	100
2024-10-24 22:49:25.569	WT901BLE68(B2C0FB98454F)	-0.271	-1.331	-0.164	-33.081	10.925	54.443	-90.13	-8.59	-134.44	-19.110	35.182	-18.522	0.23492	-0.30960	0.64856	-0.65436	27.1	13111	100
2024-10-24 22:49:25.659	WT901BLE68(B2C0FB98454F)	0.051	-1.070	-0.108	-52.368	-75.012	15.442	-94.44	-4.38	-131.77	-19.110	35.182	-18.522	0.23492	-0.30960	0.64856	-0.65436	27.1	13111	100
2024-10-24 22:49:25.809	WT901BLE68(B2C0FB98454F)	0.038	-1.001	-0.277	-38.269	-87.708	14.343	-98.83	-0.88	-122.16	-11.956	38.612	1.078	0.23492	-0.30960	0.64856	-0.65436	27.1	13111	100
2024-10-24 22:49:25.839	WT901BLE68(B2C0FB98454F)	0.002	-0.989	-0.136	-21.423	-84.839	12.512	-101.54	2.20	-115.15	-11.956	38.612	1.078	0.23492	-0.30960	0.64856	-0.65436	27.1	13111	100
2024-10-24 22:49:25.959	WT901BLE68(B2C0FB98454F)	0.012	-0.991	-0.182	-7.141	-97.168	-4.211	-101.99	4.05	-105.09	-11.956	38.612	1.078	0.44434	-0.49469	0.59714	-0.44852	27.1	13111	100
2024-10-24 22:49:26.49	WT901BLE68(B2C0FB98454F)	-0.426	-0.970	-0.233	0.183	-118.652	-8.545	-101.21	5.37	-92.63	-11.956	38.612	1.078	0.44434	-0.49469	0.59714	-0.44852	27.1	13111	100
2024-10-24 22:49:26.168	WT901BLE68(B2C0FB98454F)	-0.024	-1.071	0.115	76.843	-162.964	-47.485	-97.32	3.75	-78.05	-3.234	39.494	9.702	0.44434	-0.49469	0.59714	-0.44852	27.1	13111	100
2024-10-24 22:49:26.260	WT901BLE68(B2C0FB98454F)	-0.092	-1.292	-0.063	112.732	-189.453	-70.923	-84.56	-0.75	-52.48	-3.234	39.494	9.702	0.44434	-0.49469	0.59714	-0.44852	27.1	13111	100
2024-10-24 22:49:26.409	WT901BLE68(B2C0FB98454F)	0.063	-0.858	0.134	58.350	-65.735	-22.278	-77.46	-6.12	-42.35	-3.234	39.494	9.702	0.72977	-0.59152	0.15732	-0.30441	27.1	13111	100
2024-10-24 22:49:26.439	WT901BLE68(B2C0FB98454F)	0.250	-0.661	0.202	16.357	-37.170	25.574	-74.45	-7.44	-37.81	-3.234	39.494	9.702	0.72977	-0.59152	0.15732	-0.30441	27.1	13111	100
2024-10-24 22:49:26.619	WT901BLE68(B2C0FB98454F)	0.153	-0.892	0.505	-28.870	-60.181	46.265	-75.84	-3.79	-31.54	2.450	42.434	1.960	0.72977	-0.59152	0.15732	-0.30441	27.1	13111	100
2024-10-24 22:49:26.649	WT901BLE68(B2C0FB98454F)	0.402	-0.820	0.386	-25.391	-27.222	17.578	-76.61	-1.97	-23.55	2.450	42.434	1.960	0.72977	-0.59152	0.15732	-0.30441	27.1	13111	100
2024-10-24 22:49:26.769	WT901BLE68(B2C0FB98454F)	0.033	-1.292	0.414	-17.151	-1.160	-3.418	-80.07	-0.74	-15.73	2.450	42.434	1.960	0.74481	-0.66013	0.05905	-0.07703	27.1	13111	100
2024-10-24 22:49:26.859	WT901BLE68(B2C0FB98454F)	-0.345	-1.185	-0.245	-54.321	-93.201	30.090	-84.37	-0.08	-8.31	2.450	42.434	1.960	0.74481	-0.66013	0.05905	-0.07703	27.1	13111	100
2024-10-24 22:49:26.979	WT901BLE68(B2C0FB98454F)	0.168	-1.007	-0.227	-55.420	-58.716	23.987	-89.27	2.65	-1.75	14.896	37.240	17.738	0.74481	-0.66013	0.05905	-0.07703	27.1	13111	100
2024-10-24 22:49:27.69	WT901BLE68(B2C0FB98454F)	-0.104	-1.030	-0.148	-24.658	-48.279	12.695	-93.40	5.27	7.55	14.896	37.240	17.738	0.74481	-0.66013	0.05905	-0.07703	27.1	13111	100
2024-10-24 22:49:27.195	WT901BLE68(B2C0FB98454F)	-0.090	-0.964	-0.044	-20.630	-8.301	20.081	-95.33	6.15	11.27	14.896	37.240	17.738	0.64584	-0.74860	-0.04556	0.14246	27.1	13111	100
2024-10-24 22:49:27.249	WT901BLE68(B2C0FB98454F)	0.092	-1.003	-0.097	-23.438	-32.043	34.851	-97.18	9.06	15.02	14.896	37.240	17.738	0.64584	-0.74860	-0.04556	0.14246	27.1	13111	100
2024-10-24 22:49:27.459	WT901BLE68(B2C0FB98454F)	0.291	-1.045	-0.126	2.075	-16.479	27.283	-97.37	12.45	20.41	14.896	37.240	17.738	0.64584	-0.74860	-0.04556	0.14246	27.1	13111	100
2024-10-24 22:49:27.461	WT901BLE68(B2C0FB98454F)	-0.258	-1.381	-0.109	25.208	0.488	-9.033	-95.70	13.11	23.76	26.166	31.948	20.482	0.64584	-0.74860	-0.04556	0.14246	27.1	13111	100
2024-10-24 22:49:27.580	WT901BLE68(B2C0FB98454F)	-0.067	-0.649	0.002	108.276	-33.997	-108.337	-85.62	6.78	26.20	26.166	31.948	20.482	0.64584	-0.74860	-0.04556	0.14246	27.1	13111	100
2024-10-24 22:49:27.669	WT901BLE68(B2C0FB98454F)	-0.166	-1.115	-0.197	85.083	122.559	-115.662	-78.85	-5.43	22.51	26.166	31.948	20.482	0.76721	-0.61142	-0.15906	0.11008	27.1	13111	100
2024-10-24 22:49:27.796	WT901BLE68(B2C0FB98454F)	0.018	-0.766	-0.089	4.272	111.694	-82.703	-75.60	-12.24	14.23	0.098	40.866	3.626	0.76721	-0.61142	-0.15906	0.11008	27.1	13111	100
2024-10-24 22:49:27.849	WT901BLE68(B2C0FB98454F)	0.441	-0.750	0.079	-34.912	69.153	-17.334	-76.31	-13.84	3.26	0.098	40.866	3.626	0.76721	-0.61142	-0.15906	0.11008	27.1	13111	100
2024-10-24 22:49:27.998	WT901BLE68(B2C0FB98454F)	0.475	-0.894	0.180	-33.752	62.866	-3.235	-77.00	-11.90	-5.19	0.098	40.866	3.626	0.74951	-0.64819	-0.03738	-0.12878	27.1	13111	100
2024-10-24 22:49:28.59	WT901BLE68(B2C0FB98454F)	-0.569	-0.963	0.116	-27.405	83.435	-15.259	-80.60	-12.93	-8.81	0.098	40.866	3.626	0.74951	-0.64819	-0.03738	-0.12878	27.1	13111	100
2024-10-24 22:49:28.209	WT901BLE68(B2C0FB98454F)	0.137	-0.623	0.199	-20.935	49.744	10.498	-81.16	-10.69	-14.88	0.098	40.866	3.626	0.74951	-0.64819	-0.03738	-0.12878	27.1	13111	100
2024-10-24 22:49:28.269	WT901BLE68(B2C0FB98454F)	-0.186	-0.878	-0.254	-25.574	45.959	58.167	-85.18	-4.88	-14.30	-2.646	38.514	8.624	0.74951	-0.64819	-0.03738	-0.12878	27.1	13111	100
2024-10-24 22:49:28.397	WT901BLE68(B2C0FB98454F)	-0.081	-0.979	-0.112	-44.067	21.606	33.081	-89.51	-0.14	-19.88	-2.646	38.514	8.624	0.74951	-0.64819	-0.03738	-0.12878	27.1	13111	100
2024-10-24 22:49:28.480	WT901BLE68(B2C0FB98454F)	-0.178	-1.001	-0.132	-30.762	14.160	52.063	-93.42	4.47	-21.24	-2.646	38.514	8.624	0.67484	-0.71240	0.16760	-0.09442	27.1	13111	100
2024-10-24 22:49:28.599	WT901BLE68(B2C0FB98454F)	0.047	-0.992	-0.059	-26.428	10.376	38.330	-96.60	8.79	-22.84	8.330	35.770	18.228	0.67484	-0.71240	0.16760	-0.09442	27.1	13111	100
2024-10-24 22:49:28.659	WT901BLE68(B2C0FB98454F)	0.152	-1.048	-0.132	-10.498	-18.494	35.034	-98.04	12.49	-19.98	8.330	35.770	18.228	0.67484	-0.71240	0.16760	-0.09442	27.1	13111	100
2024-10-24 22:49:28.779	WT901BLE68(B2C0FB98454F)	-0.282	-1.271	-0.198	12.817	-5.737	19.653	-97.14	14.85	-16.42	8.330	35.770	18.228	0.67484	-0.71240	0.16760	-0.09442	27.1	13111	100
2024-10-24 22:49:28.899	WT901BLE68(B2C0FB98454F)	0.005	-0.996	0.175	98.877	-27.649	-47.180	-92.73	13.02	-12.46	8.330	35.770	18.228	0.68933	-0.70737	0.15582	0.00739	27.1	13111	100
2024-10-24 22:49:28.997	WT901BLE68(B2C0FB98454F)	-0.126	-1.159	-0.047	42.969	-27.832	-130.066	-83.31	2.74	-6.54	8.330	35.770	18.228	0.68933	-0.70737	0.15582	0.00739	27.1	13111	100
2024-10-24 22:49:29.79	WT901BLE68(B2C0FB98454F)	-0.233	-1.103	0.012	19.348	50.110	-103.943	-80.29	-7.68	-5.92	0.294	39.102	5.096	0.68933	-0.70737	0.15582	0.00739	27.1	13111	100
2024-10-24 22:49:29.199	WT901BLE68(B2C0FB98454F)	0.322	-0.745	0.114	-2.319	36.926	-66.589	-78.61	-14.84	-14.37	0.294	39.102	5.096	0.68933	-0.70737	0.15582	0.00739	27.1	13111	100
2024-10-24 22:49:29.259	WT901BLE68(B2C0FB98454F)	0.622	-0.728	0.350	-21.790	-5.310	26.733	-78.87	-14.79	-18.35	0.294	39.102	5.096	0.74072	-0.64127	0.00900	-0.19977	27.1	13111	100
2024-10-24 22:49:29.410	WT901BLE68(B2C0FB98454F)	-0.090	-1.133	0.255	-35.889	48.462	4.700	-81.81	-12.21	-19.27	0.294	39.102	5.096	0.74072	-0.64127	0.00900	-0.19977	27.1	13111	100
2024-10-24 22:49:29.469	WT901BLE68(B2C0FB98454F)	-0.156	-1.198	-0.227	-14.587	-11.658	31.799	-82.48	-10.06	-21.96	-7.154	36.456	7.154	0.74072	-0.64127	0.00900	-0.19977	27.1	13111	100
2024-10-24 22:49:29.597	WT901BLE68(B2C0FB98454F)	-0.248	-0.961	0.000	-47.974	-69.641	50.110	-85.30	-7.50	-18.56	-7.154	36.456	7.154	0.74072	-0.64127	0.00900	-0.19977	27.1	13111	100
2024-10-24 22:49:29.679	WT901BLE68(B2C0FB98454F)	-0.008	-0.962	-0.187	-33.142	4.578	28.870	-88.81	-2.97	-17.02	-7.154	36.456	7.154	0.70157	-0.69653	0.08679	-0.12247	27.1	13111	100
2024-10-24 22:49:29.799	WT901BLE68(B2C0FB98454F)	-0.108	-0.987	-0.194	-17.700	-94.482	12.817	-91.99	-0.37	-10.73	-7.154	36.456	7.154	0.70157	-0.69653	0.08679	-0.12247	27.1	13111	100
2024-10-24 22:49:29.888	WT901BLE68(B2C0FB98454F)	-0.017	-1.007	-0.042	-2.258	-65.186	7.385	-93.29	1.25	-2.41	8.526	34.594	17.640	0.70157	-0.69653	0.08679	-0.12247	27.1	13111	100
2024-10-24 22:49:30.8	WT901BLE68(B2C0FB98454F)	0.105	-1.020	-0.224	7.263	-112.976	6.409	-92.93	2.41	8.35	8.526	34.594	17.640	0.70157	-0.69653	0.08679	-0.12247	27.1	13111	100
2024-10-24 22:49:30.69	WT901BLE68(B2C0FB98454F)	-0.260	-0.977	-0.183	19.836	-115.417	9.094	-91.40	3.47	21.83	8.526	34.594	17.640	0.67880	-0.69983	-0.13580	0.17584	27.1	13111	100
2024-10-24 22:49:30.197	WT901BLE68(B2C0FB98454F)	-0.250	-1.082	0.019	29.297	-106.445	-23.132	-89.18	1.94	34.43	8.526	34.594	17.640	0.67880	-0.69983	-0.13580	0.17584	27.1	13111	100
2024-10-24 22:49:30.279	WT901BLE68(B2C0FB98454F)	0.073	-1.011	0.105	49.622	-195.923	-27.527	-84.91	-1.24	52.81	22.148	37.338	2.744	0.67880	-0.69983	-0.13580	0.17584	27.1	13111	100
2024-10-24 22:49:30.398	WT901BLE68(B2C0FB98454F)	0.070	-0.940	0.104	37.415	-169.312	-6.897	-82.08	-4.38	73.64	22.148	37.338	2.744	0.67880	-0.69983	-0.13580	0.17584	27.1	13111	100
2024-10-24 22:49:30.495	WT901BLE68(B2C0FB98454F)	0.215	-0.899	0.099	12.268	-96.375	15.991	-80.83	-5.05	87.34	22.148	37.338	2.744	0.56412	-0.44189	-0.47641	0.50931	27.1	13111	100
2024-10-24 22:49:30.609	WT901BLE68(B2C0FB98454F)	0.173	-1.041	0.195	-6.897	-83.374	6.592	-81.75	-4.89	97.48	22.148	37.338	2.744	0.56412	-0.44189	-0.47641	0.50931	27.1	13111	100
2024-10-24 22:49:30.669	WT901BLE68(B2C0FB98454F)	0.032	-0.964	0.225	31.372	-62.134	12.695	-80.78	-5.33	105.40	22.246	38.906	-20.090	0.56412	-0.44189	-0.47641	0.50931	27.1	13111	100
2024-10-24 22:49:30.819	WT901BLE68(B2C0FB98454F)	0.249	-0.876	0.273	32.043	-56.335	19.592	-77.89	-4.93	111.75	22.246	38.906	-20.090	0.56412	-0.44189	-0.47641	0.50931	27.1	13111	100
2024-10-24 22:49:30.879	WT901BLE68(B2C0FB98454F)	0.436	-0.828	0.148	3.479	-44.434	29.846	-75.65	-3.71	117.02	22.246	38.906	-20.090	0.41782	-0.29950	-0.54214	0.66461	27.1	13111	100
2024-10-24 22:49:30.999	WT901BLE68(B2C0FB98454F)	-0.090	-0.894	0.281	-59.998	-16.113	27.710	-79.60	-1.88	120.28	22.246	38.906	-20.090	0.41782	-0.29950	-0.54214	0.66461	27.1	13111	100
2024-10-24 22:49:31.95	WT901BLE68(B2C0FB98454F)	-0.162	-1.160	0.411	-40.894	21.545	13.550	-84.98	-0.09	116.63	25.970	37.436	-17.248	0.41782	-0.29950	-0.54214	0.66461	27.1	13111	100
2024-10-24 22:49:31.208	WT901BLE68(B2C0FB98454F)	-0.150	-0.883	-0.229	-40.283	-90.576	-5.127	-88.08	-0.44	119.66	25.970	37.436	-17.248	0.41782	-0.29950	-0.54214	0.66461	27.1	13111	100
2024-10-24 22:49:31.359	WT901BLE68(B2C0FB98454F)	0.090	-0.971	-0.225	-39.185	-31.677	1.831	-92.47	0.14	125.58	25.970	37.436	-17.248	0.30969	-0.33081	-0.64749	0.61261	27.1	13111	100
2024-10-24 22:49:31.419	WT901BLE68(B2C0FB98454F)	-0.063	-1.042	-0.152	-30.090	-82.397	7.202	-96.47	1.77	132.67	25.970	37.436	-17.248	0.30969	-0.33081	-0.64749	0.61261	27.1	13111	100
2024-10-24 22:49:31.479	WT901BLE68(B2C0FB98454F)	-0.096	-0.988	-0.123	-17.578	-60.608	3.845	-98.67	2.85	138.37	25.480	38.416	-10.682	0.30969	-0.33081	-0.64749	0.61261	27.1	13111	100
2024-10-24 22:49:31.689	WT901BLE68(B2C0FB98454F)	-0.006	-0.986	-0.134	-19.287	-57.190	4.150	-100.20	4.13	143.15	25.480	38.416	-10.682	0.30969	-0.33081	-0.64749	0.61261	27.1	13111	100
2024-10-24 22:49:31.691	WT901BLE68(B2C0FB98454F)	-0.017	-0.975	-0.161	-18.921	-51.880	20.203	-101.52	6.21	147.47	25.480	38.416	-10.682	0.12494	-0.24832	-0.73621	0.61694	27.1	13111	100
2024-10-24 22:49:31.808	WT901BLE68(B2C0FB98454F)	0.304	-1.028	-0.206	-13.123	-40.405	24.048	-102.54	9.03	150.05	25.480	38.416	-10.682	0.12494	-0.24832	-0.73621	0.61694	27.1	13111	100
2024-10-24 22:49:31.899	WT901BLE68(B2C0FB98454F)	-0.387	-1.215	-0.228	-2.441	-16.785	2.502	-102.66	11.01	151.82	28.812	36.750	-11.662	0.12494	-0.24832	-0.73621	0.61694	27.1	13111	100
2024-10-24 22:49:32.55	WT901BLE68(B2C0FB98454F)	0.141	-1.049	0.245	98.694	-54.016	-84.045	-98.65	6.78	151.89	28.812	36.750	-11.662	0.12494	-0.24832	-0.73621	0.61694	27.1	13111	100
2024-10-24 22:49:32.79	WT901BLE68(B2C0FB98454F)	-0.048	-1.440	-0.247	72.876	-94.604	-109.924	-88.15	-2.43	162.22	28.812	36.750	-11.662	0.13278	-0.07050	-0.68506	0.71274	27.1	13111	100
2024-10-24 22:49:32.198	WT901BLE68(B2C0FB98454F)	0.046	-1.037	0.036	43.579	49.377	-74.341	-82.06	-12.27	160.01	28.812	36.750	-11.662	0.13278	-0.07050	-0.68506	0.71274	27.1	13111	100
2024-10-24 22:49:32.319	WT901BLE68(B2C0FB98454F)	0.333	-0.715	0.106	-19.409	-11.230	-41.626	-80.41	-17.52	157.05	6.468	36.848	-32.242	0.13278	-0.07050	-0.68506	0.71274	27.1	13111	100
2024-10-24 22:49:32.408	WT901BLE68(B2C0FB98454F)	0.552	-0.764	0.099	-23.560	47.180	26.672	-82.60	-16.93	156.87	6.468	36.848	-32.242	0.13278	-0.07050	-0.68506	0.71274	27.1	13111	100
2024-10-24 22:49:32.498	WT901BLE68(B2C0FB98454F)	0.178	-1.125	0.294	-28.503	82.642	-12.756	-84.63	-15.11	148.56	6.468	36.848	-32.242	0.30261	-0.10098	-0.66724	0.67300	27.1	13111	100
2024-10-24 22:49:32.619	WT901BLE68(B2C0FB98454F)	-0.265	-1.400	-0.036	-28.992	23.376	36.682	-85.19	-14.20	141.75	6.468	36.848	-32.242	0.30261	-0.10098	-0.66724	0.67300	27.1	13111	100
2024-10-24 22:49:32.708	WT901BLE68(B2C0FB98454F)	-0.025	-0.971	0.015	-41.077	-6.714	52.612	-87.32	-10.76	140.39	14.798	39.886	-21.462	0.30261	-0.10098	-0.66724	0.67300	27.1	13111	100
2024-10-24 22:49:32.830	WT901BLE68(B2C0FB98454F)	-0.095	-0.936	-0.207	-48.096	19.653	37.537	-90.86	-4.74	138.92	14.798	39.886	-21.462	0.30261	-0.10098	-0.66724	0.67300	27.1	13111	100
2024-10-24 22:49:32.895	WT901BLE68(B2C0FB98454F)	-0.099	-0.967	-0.159	-38.818	-39.124	31.128	-95.47	-0.98	140.77	14.798	39.886	-21.462	0.20776	-0.25043	-0.70865	0.62595	27.1	13111	100
2024-10-24 22:49:33.8	WT901BLE68(B2C0FB98454F)	-0.054	-0.980	-0.038	-29.236	2.563	39.734	-98.61	2.85	141.50	14.798	39.886	-21.462	0.20776	-0.25043	-0.70865	0.62595	27.1	13111	100
2024-10-24 22:49:33.98	WT901BLE68(B2C0FB98454F)	0.009	-1.006	-0.168	-20.996	-28.259	41.443	-100.77	7.16	141.21	28.028	37.436	-9.310	0.20776	-0.25043	-0.70865	0.62595	27.1	13111	100
2024-10-24 22:49:33.218	WT901BLE68(B2C0FB98454F)	-0.099	-1.083	-0.180	-5.859	-26.917	26.001	-101.66	10.57	141.84	28.028	37.436	-9.310	0.20776	-0.25043	-0.70865	0.62595	27.1	13111	100
2024-10-24 22:49:33.309	WT901BLE68(B2C0FB98454F)	-0.313	-1.130	-0.048	31.250	-39.063	-28.564	-100.27	10.38	143.10	28.028	37.436	-9.310	0.13855	-0.26898	-0.69778	0.64917	27.1	13111	100
2024-10-24 22:49:33.459	WT901BLE68(B2C0FB98454F)	0.074	-0.905	0.053	106.689	-120.789	-91.064	-89.03	4.98	152.31	28.028	37.436	-9.310	0.13855	-0.26898	-0.69778	0.64917	27.1	13111	100
2024-10-24 22:49:33.495	WT901BLE68(B2C0FB98454F)	-0.247	-1.005	0.097	40.222	-14.282	-95.093	-82.84	-5.63	157.01	13.524	37.240	-31.066	0.13855	-0.26898	-0.69778	0.64917	27.1	13111	100
2024-10-24 22:49:33.608	WT901BLE68(B2C0FB98454F)	0.165	-0.818	0.104	10.437	22.400	-70.313	-80.94	-11.42	154.54	13.524	37.240	-31.066	0.13855	-0.26898	-0.69778	0.64917	27.1	13111	100
2024-10-24 22:49:33.698	WT901BLE68(B2C0FB98454F)	0.535	-0.763	0.136	-21.545	1.709	-9.521	-83.72	-14.58	156.00	13.524	37.240	-31.066	0.24164	-0.06403	-0.66910	0.69980	27.1	13111	100
2024-10-24 22:49:33.818	WT901BLE68(B2C0FB98454F)	-0.221	-1.104	0.130	-31.982	60.242	-13.000	-84.54	-13.46	151.67	13.524	37.240	-31.066	0.24164	-0.06403	-0.66910	0.69980	27.1	13111	100
2024-10-24 22:49:33.908	WT901BLE68(B2C0FB98454F)	-0.190	-1.255	0.095	25.818	7.080	17.212	-84.41	-13.18	146.22	10.878	39.298	-27.146	0.24164	-0.06403	-0.66910	0.69980	27.1	13111	100
2024-10-24 22:49:34.29	WT901BLE68(B2C0FB98454F)	-0.183	-0.972	0.030	-37.476	-11.414	44.617	-86.57	-10.68	148.94	10.878	39.298	-27.146	0.24164	-0.06403	-0.66910	0.69980	27.1	13111	100
2024-10-24 22:49:34.119	WT901BLE68(B2C0FB98454F)	-0.063	-0.997	-0.161	-25.757	24.536	14.343	-88.81	-6.30	147.07	10.878	39.298	-27.146	0.23138	-0.16721	-0.68958	0.66550	27.1	13111	100
2024-10-24 22:49:34.239	WT901BLE68(B2C0FB98454F)	0.022	-1.000	-0.126	-26.733	-74.341	21.851	-92.35	-4.19	150.41	10.878	39.298	-27.146	0.23138	-0.16721	-0.68958	0.66550	27.1	13111	100
2024-10-24 22:49:34.298	WT901BLE68(B2C0FB98454F)	0.014	-0.998	-0.011	-17.517	3.174	26.001	-94.76	-1.31	153.54	18.032	40.768	-18.326	0.23138	-0.16721	-0.68958	0.66550	27.1	13111	100
2024-10-24 22:49:34.419	WT901BLE68(B2C0FB98454F)	0.004	-0.991	-0.128	-14.221	-41.077	28.137	-96.44	1.58	154.30	18.032	40.768	-18.326	0.23138	-0.16721	-0.68958	0.66550	27.1	13111	100
2024-10-24 22:49:34.508	WT901BLE68(B2C0FB98454F)	-0.100	-1.004	-0.147	-8.972	-45.166	32.043	-97.33	4.95	157.37	18.032	40.768	-18.326	0.07339	-0.17014	-0.73300	0.65442	27.1	13111	100
2024-10-24 22:49:34.628	WT901BLE68(B2C0FB98454F)	-0.007	-1.051	-0.031	2.014	-73.425	-13.916	-97.29	6.76	161.66	18.032	40.768	-18.326	0.07339	-0.17014	-0.73300	0.65442	27.1	13111	100
2024-10-24 22:49:34.718	WT901BLE68(B2C0FB98454F)	-0.287	-1.061	-0.062	35.339	-118.164	-45.776	-93.86	4.34	171.71	15.288	39.984	-23.912	0.07339	-0.17014	-0.73300	0.65442	27.1	13111	100
2024-10-24 22:49:34.838	WT901BLE68(B2C0FB98454F)	0.026	-1.047	0.197	76.538	-132.507	-53.467	-87.64	-0.49	-178.33	15.288	39.984	-23.912	0.07339	-0.17014	-0.73300	0.65442	27.1	13111	100
2024-10-24 22:49:34.899	WT901BLE68(B2C0FB98454F)	0.234	-0.982	0.095	53.101	-134.949	-37.720	-81.12	-6.49	-165.28	15.288	39.984	-23.912	-0.08578	0.16214	-0.61993	0.76285	27.1	13111	100
2024-10-24 22:49:35.19	WT901BLE68(B2C0FB98454F)	0.140	-0.878	0.101	26.001	-68.054	-8.972	-78.41	-8.94	-157.12	15.288	39.984	-23.912	-0.08578	0.16214	-0.61993	0.76285	27.1	13111	100
2024-10-24 22:49:35.108	WT901BLE68(B2C0FB98454F)	0.310	-0.734	0.247	6.531	-16.235	24.536	-77.73	-9.14	-154.58	-6.762	33.320	-36.358	-0.08578	0.16214	-0.61993	0.76285	27.1	13111	100
2024-10-24 22:49:35.231	WT901BLE68(B2C0FB98454F)	0.412	-0.919	0.268	-17.090	-46.875	28.442	-79.20	-7.33	-151.03	-6.762	33.320	-36.358	-0.08578	0.16214	-0.61993	0.76285	27.1	13111	100
2024-10-24 22:49:35.320	WT901BLE68(B2C0FB98454F)	0.444	-0.969	0.351	-12.634	-37.659	2.808	-80.77	-7.06	-149.90	-6.762	33.320	-36.358	-0.15524	0.21631	-0.62036	0.73767	27.1	13111	100
2024-10-24 22:49:35.438	WT901BLE68(B2C0FB98454F)	0.202	-1.221	0.215	-8.423	-21.851	-5.432	-82.39	-7.37	-149.85	-6.762	33.320	-36.358	-0.15524	0.21631	-0.62036	0.73767	27.1	13111	100
2024-10-24 22:49:35.530	WT901BLE68(B2C0FB98454F)	0.119	-1.245	0.040	-50.659	-48.462	32.288	-85.19	-6.76	-149.13	-6.664	38.024	-26.852	-0.15524	0.21631	-0.62036	0.73767	27.1	13111	100
2024-10-24 22:49:35.649	WT901BLE68(B2C0FB98454F)	-0.190	-1.037	-0.226	-32.715	17.822	18.738	-87.94	-4.39	-149.62	-6.664	38.024	-26.852	-0.15524	0.21631	-0.62036	0.73767	27.1	13111	100
2024-10-24 22:49:35.708	WT901BLE68(B2C0FB98454F)	0.028	-0.977	-0.080	-36.987	-40.039	26.184	-91.53	-1.97	-149.84	-6.664	38.024	-26.852	-0.19174	0.20395	-0.70026	0.65662	27.1	13111	100
2024-10-24 22:49:35.829	WT901BLE68(B2C0FB98454F)	-0.012	-0.985	-0.099	-29.846	-26.611	34.241	-94.85	1.70	-146.68	-6.664	38.024	-26.852	-0.19174	0.20395	-0.70026	0.65662	27.1	13111	100
2024-10-24 22:49:35.921	WT901BLE68(B2C0FB98454F)	-0.054	-0.998	-0.047	-20.447	-20.752	22.705	-97.20	4.47	-146.55	-0.490	42.826	-14.504	-0.19174	0.20395	-0.70026	0.65662	27.1	13111	100
2024-10-24 22:49:36.39	WT901BLE68(B2C0FB98454F)	0.040	-1.005	-0.160	-14.954	-38.208	20.264	-98.45	6.62	-145.23	-0.490	42.826	-14.504	-0.19174	0.20395	-0.70026	0.65662	27.1	13111	100
2024-10-24 22:49:36.130	WT901BLE68(B2C0FB98454F)	-0.104	-1.088	-0.241	-11.719	-33.936	20.386	-99.34	8.89	-143.88	-0.490	42.826	-14.504	-0.25580	0.18588	-0.73859	0.59531	27.1	13111	100
2024-10-24 22:49:36.248	WT901BLE68(B2C0FB98454F)	-0.173	-1.027	0.003	36.560	-66.650	-25.940	-97.97	8.48	-142.94	-0.490	42.826	-14.504	-0.25580	0.18588	-0.73859	0.59531	27.1	13111	100
2024-10-24 22:49:36.309	WT901BLE68(B2C0FB98454F)	0.002	-1.172	-0.143	96.985	-115.356	-98.083	-86.53	3.05	-133.95	-9.996	39.396	-21.168	-0.25580	0.18588	-0.73859	0.59531	27.1	13111	100
2024-10-24 22:49:36.429	WT901BLE68(B2C0FB98454F)	-0.155	-0.982	0.049	8.240	6.165	-69.153	-81.56	-6.43	-129.19	-9.996	39.396	-21.168	-0.25580	0.18588	-0.73859	0.59531	27.1	13111	100
2024-10-24 22:49:36.519	WT901BLE68(B2C0FB98454F)	0.218	-0.823	0.171	-2.563	18.738	-59.082	-81.47	-11.86	-131.75	-9.996	39.396	-21.168	-0.23047	0.34790	-0.56226	0.71387	27.1	13111	100
2024-10-24 22:49:36.639	WT901BLE68(B2C0FB98454F)	0.521	-0.813	0.184	-21.545	-11.719	7.385	-83.49	-13.66	-131.26	-9.996	39.396	-21.168	-0.23047	0.34790	-0.56226	0.71387	27.1	13111	100
2024-10-24 22:49:36.730	WT901BLE68(B2C0FB98454F)	0.027	-1.042	0.103	-29.968	30.151	-0.671	-85.13	-11.73	-132.50	-18.816	34.888	-20.678	-0.23047	0.34790	-0.56226	0.71387	27.1	13111	100
2024-10-24 22:49:36.849	WT901BLE68(B2C0FB98454F)	-0.191	-1.346	0.334	-6.348	21.301	34.912	-84.28	-11.75	-137.58	-18.816	34.888	-20.678	-0.23047	0.34790	-0.56226	0.71387	27.1	13111	100
2024-10-24 22:49:36.939	WT901BLE68(B2C0FB98454F)	-0.232	-0.905	0.144	-31.311	0.183	31.250	-85.47	-10.55	-135.59	-18.816	34.888	-20.678	-0.23499	0.30856	-0.62302	0.67920	27.1	13111	100
2024-10-24 22:49:37.59	WT901BLE68(B2C0FB98454F)	-0.160	-0.902	-0.203	-25.085	23.315	35.034	-88.43	-6.11	-135.41	-18.816	34.888	-20.678	-0.23499	0.30856	-0.62302	0.67920	27.1	13111	100
2024-10-24 22:49:37.119	WT901BLE68(B2C0FB98454F)	0.025	-0.999	-0.175	-30.518	-96.863	13.977	-92.17	-3.60	-131.32	-12.838	39.298	-8.428	-0.23499	0.30856	-0.62302	0.67920	27.1	13111	100
2024-10-24 22:49:37.269	WT901BLE68(B2C0FB98454F)	0.032	-1.011	-0.109	-13.428	-54.382	19.836	-94.89	-0.97	-123.31	-12.838	39.298	-8.428	-0.23499	0.30856	-0.62302	0.67920	27.1	13111	100
2024-10-24 22:49:37.359	WT901BLE68(B2C0FB98454F)	0.125	-1.015	-0.170	-10.498	-88.806	18.250	-95.94	1.65	-117.33	-12.838	39.298	-8.428	-0.38831	0.40179	-0.62833	0.54114	27.1	13111	100
2024-10-24 22:49:37.449	WT901BLE68(B2C0FB98454F)	-0.016	-1.050	-0.131	6.042	-86.182	-6.470	-96.18	3.19	-109.52	-12.838	39.298	-8.428	-0.38831	0.40179	-0.62833	0.54114	27.1	13111	100
2024-10-24 22:49:37.540	WT901BLE68(B2C0FB98454F)	-0.166	-0.996	-0.139	30.273	-117.126	-49.133	-93.72	0.96	-99.37	-10.290	39.396	2.842	-0.38831	0.40179	-0.62833	0.54114	27.1	13111	100
2024-10-24 22:49:37.659	WT901BLE68(B2C0FB98454F)	-0.066	-1.027	0.103	71.289	-112.549	-38.330	-89.65	-2.61	-87.24	-10.290	39.396	2.842	-0.38831	0.40179	-0.62833	0.54114	27.1	13111	100
2024-10-24 22:49:37.719	WT901BLE68(B2C0FB98454F)	0.105	-1.070	0.181	70.068	-142.456	-38.940	-83.28	-6.95	-74.00	-10.290	39.396	2.842	-0.61829	0.58255	-0.28372	0.44467	27.1	13111	100
2024-10-24 22:49:37.840	WT901BLE68(B2C0FB98454F)	0.251	-0.881	0.114	36.560	-97.168	9.460	-80.07	-9.72	-61.24	-10.290	39.396	2.842	-0.61829	0.58255	-0.28372	0.44467	27.1	13111	100
2024-10-24 22:49:37.930	WT901BLE68(B2C0FB98454F)	0.162	-0.872	0.167	15.991	-28.748	40.100	-79.32	-8.17	-53.70	-6.664	41.356	1.764	-0.61829	0.58255	-0.28372	0.44467	27.1	13111	100
2024-10-24 22:49:38.50	WT901BLE68(B2C0FB98454F)	0.184	-0.933	0.290	6.958	-23.804	45.410	-78.28	-4.11	-48.35	-6.664	41.356	1.764	-0.61829	0.58255	-0.28372	0.44467	27.1	13111	100
2024-10-24 22:49:38.139	WT901BLE68(B2C0FB98454F)	0.182	-0.820	0.438	33.630	-113.281	5.798	-76.09	-2.94	-38.69	-6.664	41.356	1.764	-0.75742	0.59137	-0.14224	0.23724	27.1	13111	100
2024-10-24 22:49:38.259	WT901BLE68(B2C0FB98454F)	-0.034	-0.834	0.305	-26.245	-27.527	25.635	-74.99	-3.37	-30.08	-6.664	41.356	1.764	-0.75742	0.59137	-0.14224	0.23724	27.1	13111	100
2024-10-24 22:49:38.350	WT901BLE68(B2C0FB98454F)	0.027	-0.781	-0.063	-57.251	-40.466	-2.808	-78.70	-3.53	-23.37	2.058	41.748	8.722	-0.75742	0.59137	-0.14224	0.23724	27.1	13111	100
2024-10-24 22:49:38.469	WT901BLE68(B2C0FB98454F)	-0.159	-0.960	-0.119	-48.035	-9.827	21.912	-84.20	-1.18	-20.25	2.058	41.748	8.722	-0.75742	0.59137	-0.14224	0.23724	27.1	13111	100
2024-10-24 22:49:38.530	WT901BLE68(B2C0FB98454F)	0.034	-1.021	-0.110	-43.518	-50.842	2.258	-88.80	-0.55	-17.00	2.058	41.748	8.722	-0.68933	0.71899	-0.06494	0.05948	27.1	13111	100
2024-10-24 22:49:38.649	WT901BLE68(B2C0FB98454F)	-0.089	-0.996	-0.111	-31.311	-42.114	13.794	-92.75	0.46	-9.20	2.058	41.748	8.722	-0.68933	0.71899	-0.06494	0.05948	27.1	13111	100
2024-10-24 22:49:38.769	WT901BLE68(B2C0FB98454F)	0.029	-0.985	-0.091	-27.588	-49.500	19.531	-95.52	2.55	-3.64	11.564	36.456	22.246	-0.68933	0.71899	-0.06494	0.05948	27.1	13111	100
2024-10-24 22:49:38.895	WT901BLE68(B2C0FB98454F)	0.021	-0.997	-0.125	-25.391	-49.683	19.775	-97.66	5.26	3.28	11.564	36.456	22.246	-0.68933	0.71899	-0.06494	0.05948	27.1	13111	100
2024-10-24 22:49:38.950	WT901BLE68(B2C0FB98454F)	-0.070	-1.028	-0.211	-15.076	-57.312	14.954	-99.06	7.45	10.17	11.564	36.456	22.246	-0.63144	0.76071	0.05106	-0.14105	27.1	13111	100
2024-10-24 22:49:39.69	WT901BLE68(B2C0FB98454F)	0.046	-1.083	-0.160	-6.042	-59.204	18.494	-99.26	9.21	17.04	11.564	36.456	22.246	-0.63144	0.76071	0.05106	-0.14105	27.1	13111	100
2024-10-24 22:49:39.130	WT901BLE68(B2C0FB98454F)	-0.287	-1.131	-0.126	21.790	-30.457	-3.845	-98.12	10.88	23.44	24.304	34.398	18.718	-0.63144	0.76071	0.05106	-0.14105	27.1	13111	100
2024-10-24 22:49:39.249	WT901BLE68(B2C0FB98454F)	0.227	-0.758	0.130	110.229	-113.586	-92.224	-89.84	6.72	31.53	24.304	34.398	18.718	-0.63144	0.76071	0.05106	-0.14105	27.1	13111	100
2024-10-24 22:49:39.341	WT901BLE68(B2C0FB98454F)	-0.150	-1.215	0.034	33.936	-32.593	-78.003	-82.15	-3.09	42.23	24.304	34.398	18.718	-0.73926	0.57617	0.27979	-0.20770	27.1	13111	100
2024-10-24 22:49:39.459	WT901BLE68(B2C0FB98454F)	0.101	-0.906	0.111	10.986	41.748	-76.477	-79.12	-10.66	39.35	24.304	34.398	18.718	-0.73926	0.57617	0.27979	-0.20770	27.1	13111	100
2024-10-24 22:49:39.549	WT901BLE68(B2C0FB98454F)	0.214	-0.778	0.122	-22.400	37.048	-37.109	-80.14	-15.96	37.10	5.194	41.944	3.626	-0.73926	0.57617	0.27979	-0.20770	27.1	13111	100
2024-10-24 22:49:39.668	WT901BLE68(B2C0FB98454F)	0.582	-0.751	0.172	-40.771	53.894	18.066	-81.90	-15.30	32.90	5.194	41.944	3.626	-0.73926	0.57617	0.27979	-0.20770	27.1	13111	100
2024-10-24 22:49:39.759	WT901BLE68(B2C0FB98454F)	0.194	-1.099	0.276	-7.874	59.387	-29.053	-83.33	-14.37	26.63	5.194	41.944	3.626	-0.74695	0.62192	0.22510	-0.06705	27.1	13111	100
