time	DeviceName	AccX(g)	AccY(g)	AccZ(g)	AsX(°/s)	AsY(°/s)	AsZ(°/s)	AngleX(°)	AngleY(°)	AngleZ(°)	HX(uT)	HY(uT)	HZ(uT)	Q0()	Q1()	Q2()	Q3()	Temperature(°C)	Version()	Battery level(%)
2024-10-24 22:28:53.254	WT901BLE68(B2C0FB98454F)	-0.506	-0.842	-0.044	-0.732	10.193	-1.526	-98.61	29.16	117.16	45.668	25.382	-6.370	0.17191	-0.52859	-0.53693	0.63452	21.5	13111	90
2024-10-24 22:28:53.344	WT901BLE68(B2C0FB98454F)	-0.481	-0.871	-0.053	-1.160	6.958	-3.845	-98.76	29.00	115.52	45.668	25.382	-6.370	0.17191	-0.52859	-0.53693	0.63452	21.5	13111	90
2024-10-24 22:28:53.405	WT901BLE68(B2C0FB98454F)	-0.497	-0.860	-0.075	-10.925	0.122	-5.859	-99.07	28.53	114.69	44.394	26.852	-3.528	0.17191	-0.52859	-0.53693	0.63452	21.5	13111	90
2024-10-24 22:28:53.524	WT901BLE68(B2C0FB98454F)	-0.517	-0.865	-0.081	-10.620	3.296	-5.981	-99.90	27.84	113.88	44.394	26.852	-3.528	0.17191	-0.52859	-0.53693	0.63452	21.5	13111	90
2024-10-24 22:28:53.644	WT901BLE68(B2C0FB98454F)	-0.480	-0.886	-0.058	4.028	4.333	2.136	-100.11	27.63	112.74	44.394	26.852	-3.528	0.19644	-0.54349	-0.52982	0.62064	21.5	13111	90
2024-10-24 22:28:53.734	WT901BLE68(B2C0FB98454F)	-0.493	-0.877	-0.124	-1.343	0.854	1.221	-99.64	27.90	111.69	44.394	26.852	-3.528	0.19644	-0.54349	-0.52982	0.62064	21.5	13111	90
2024-10-24 22:28:53.855	WT901BLE68(B2C0FB98454F)	-0.507	-0.880	-0.097	-3.052	0.427	0.671	-99.79	27.98	111.03	44.198	26.950	-2.254	0.19644	-0.54349	-0.52982	0.62064	21.5	13111	90
2024-10-24 22:28:53.945	WT901BLE68(B2C0FB98454F)	-0.516	-0.859	-0.108	-2.075	1.404	0.854	-99.84	28.10	110.25	44.198	26.950	-2.254	0.19644	-0.54349	-0.52982	0.62064	21.5	13111	90
2024-10-24 22:28:54.4	WT901BLE68(B2C0FB98454F)	-0.482	-0.872	-0.104	-5.066	-4.333	-0.244	-100.00	28.25	109.99	44.198	26.950	-2.254	0.20593	-0.55692	-0.51642	0.61694	21.5	13111	90
2024-10-24 22:28:54.154	WT901BLE68(B2C0FB98454F)	-0.518	-0.880	-0.106	1.831	2.380	0.916	-99.84	28.34	109.40	44.198	26.950	-2.254	0.20593	-0.55692	-0.51642	0.61694	21.5	13111	90
2024-10-24 22:28:54.214	WT901BLE68(B2C0FB98454F)	-0.515	-0.849	-0.125	-7.446	-6.531	0.610	-99.80	28.52	109.08	44.492	26.852	-1.568	0.20593	-0.55692	-0.51642	0.61694	21.5	13111	90
2024-10-24 22:28:54.334	WT901BLE68(B2C0FB98454F)	-0.518	-0.848	-0.124	-5.432	-8.606	0.000	-99.90	28.73	109.51	44.492	26.852	-1.568	0.20593	-0.55692	-0.51642	0.61694	21.5	13111	90
2024-10-24 22:28:54.424	WT901BLE68(B2C0FB98454F)	-0.460	-0.874	-0.123	-3.113	-5.493	0.427	-99.84	28.97	109.81	44.492	26.852	-1.568	0.19839	-0.55722	-0.51437	0.62085	21.5	13111	90
2024-10-24 22:28:54.544	WT901BLE68(B2C0FB98454F)	-0.529	-0.881	-0.150	-3.784	-3.967	1.770	-99.77	29.29	110.14	44.492	26.852	-1.568	0.19839	-0.55722	-0.51437	0.62085	21.5	13111	90
2024-10-24 22:28:54.635	WT901BLE68(B2C0FB98454F)	-0.521	-0.854	-0.121	-2.014	-2.625	2.258	-99.75	29.48	109.92	44.884	26.558	-2.450	0.19839	-0.55722	-0.51437	0.62085	21.5	13111	90
2024-10-24 22:28:54.755	WT901BLE68(B2C0FB98454F)	-0.544	-0.862	-0.107	-8.667	-14.709	1.404	-99.70	29.89	110.63	44.884	26.558	-2.450	0.19839	-0.55722	-0.51437	0.62085	21.5	13111	90
2024-10-24 22:28:54.814	WT901BLE68(B2C0FB98454F)	-0.490	-0.841	-0.103	-18.127	-25.330	-1.770	-99.73	30.25	112.24	44.884	26.558	-2.450	0.16541	-0.54443	-0.52817	0.63019	21.5	13111	90
2024-10-24 22:28:54.935	WT901BLE68(B2C0FB98454F)	-0.566	-0.878	-0.141	-14.282	-15.686	3.052	-100.00	30.84	114.40	44.884	26.558	-2.450	0.16541	-0.54443	-0.52817	0.63019	21.5	13111	90
2024-10-24 22:28:55.25	WT901BLE68(B2C0FB98454F)	-0.526	-0.828	-0.146	-14.709	-16.052	2.014	-100.09	31.14	115.40	45.178	26.362	-4.998	0.16541	-0.54443	-0.52817	0.63019	21.5	13111	90
2024-10-24 22:28:55.146	WT901BLE68(B2C0FB98454F)	-0.555	-0.834	-0.168	0.244	-6.470	-1.465	-100.01	31.48	116.65	45.178	26.362	-4.998	0.16541	-0.54443	-0.52817	0.63019	21.5	13111	90
2024-10-24 22:28:55.235	WT901BLE68(B2C0FB98454F)	-0.522	-0.830	-0.140	-0.366	-2.808	-5.615	-99.75	31.24	116.91	45.178	26.362	-4.998	0.14923	-0.53073	-0.53958	0.63623	21.5	13111	90
2024-10-24 22:28:55.355	WT901BLE68(B2C0FB98454F)	-0.545	-0.859	-0.093	0.244	-1.526	-3.845	-99.51	30.86	117.28	45.178	26.362	-4.998	0.14923	-0.53073	-0.53958	0.63623	21.5	13111	90
2024-10-24 22:28:55.415	WT901BLE68(B2C0FB98454F)	-0.557	-0.852	-0.162	11.536	15.076	-5.188	-99.04	30.36	115.90	44.198	27.146	-5.390	0.14923	-0.53073	-0.53958	0.63623	21.5	13111	90
2024-10-24 22:28:55.535	WT901BLE68(B2C0FB98454F)	-0.638	-0.814	-0.250	20.630	-2.319	-6.226	-98.70	29.85	114.71	44.198	27.146	-5.390	0.14923	-0.53073	-0.53958	0.63623	21.5	13111	90
2024-10-24 22:28:55.624	WT901BLE68(B2C0FB98454F)	-0.232	-0.823	-0.121	53.223	-9.583	3.174	-95.16	29.66	114.96	44.198	27.146	-5.390	0.18893	-0.50751	-0.47104	0.69623	21.5	13111	90
2024-10-24 22:28:55.745	WT901BLE68(B2C0FB98454F)	-0.390	-1.115	-0.115	104.187	-102.966	40.344	-84.71	32.42	120.87	44.198	27.146	-5.390	0.18893	-0.50751	-0.47104	0.69623	21.5	13111	90
2024-10-24 22:28:55.835	WT901BLE68(B2C0FB98454F)	-0.695	-0.492	0.127	57.983	-53.711	13.977	-72.15	33.30	128.61	42.336	18.130	-31.948	0.18893	-0.50751	-0.47104	0.69623	21.5	13111	90
2024-10-24 22:28:55.955	WT901BLE68(B2C0FB98454F)	-0.451	-0.713	0.567	97.107	-117.554	60.181	-61.62	32.41	137.66	42.336	18.130	-31.948	0.18893	-0.50751	-0.47104	0.69623	21.5	13111	90
2024-10-24 22:28:56.45	WT901BLE68(B2C0FB98454F)	-0.269	-0.531	0.584	131.592	-33.997	56.580	-46.16	34.94	144.28	42.336	18.130	-31.948	0.13477	-0.34592	-0.20279	0.90607	21.5	13111	90
2024-10-24 22:28:56.165	WT901BLE68(B2C0FB98454F)	-0.262	-0.423	0.723	117.004	-16.174	79.773	-30.04	34.99	154.69	42.336	18.130	-31.948	0.13477	-0.34592	-0.20279	0.90607	21.5	13111	90
2024-10-24 22:28:56.225	WT901BLE68(B2C0FB98454F)	-0.519	-0.122	0.857	75.256	-56.335	67.749	-14.75	35.22	165.29	32.536	-19.600	-45.668	0.13477	-0.34592	-0.20279	0.90607	21.5	13111	90
2024-10-24 22:28:56.345	WT901BLE68(B2C0FB98454F)	-0.452	-0.030	0.943	77.148	-69.885	41.443	-2.60	30.67	173.26	32.536	-19.600	-45.668	0.13477	-0.34592	-0.20279	0.90607	21.5	13111	90
2024-10-24 22:28:56.436	WT901BLE68(B2C0FB98454F)	-0.413	0.316	1.057	61.340	-42.969	13.794	5.65	25.17	176.23	32.536	-19.600	-45.668	0.04739	-0.19156	0.08374	0.97672	21.5	13111	90
2024-10-24 22:28:56.555	WT901BLE68(B2C0FB98454F)	-0.465	0.479	1.123	5.676	-8.362	3.357	9.33	22.37	176.22	32.536	-19.600	-45.668	0.04739	-0.19156	0.08374	0.97672	21.5	13111	90
2024-10-24 22:28:56.645	WT901BLE68(B2C0FB98454F)	-0.476	0.355	1.158	-55.725	47.729	-9.277	7.23	24.60	175.84	32.536	-19.600	-45.668	0.04739	-0.19156	0.08374	0.97672	21.5	13111	90
2024-10-24 22:28:56.765	WT901BLE68(B2C0FB98454F)	-0.623	0.120	1.017	-91.614	77.454	-43.579	-1.07	31.04	171.88	28.714	-25.480	-45.668	0.04739	-0.19156	0.08374	0.97672	21.5	13111	90
2024-10-24 22:28:56.825	WT901BLE68(B2C0FB98454F)	-0.569	-0.101	0.870	-85.999	77.759	-83.130	-14.33	37.50	161.59	28.714	-25.480	-45.668	0.16516	-0.37299	-0.13837	0.90240	21.5	13111	90
2024-10-24 22:28:56.945	WT901BLE68(B2C0FB98454F)	-0.447	-0.464	0.628	-103.760	46.509	-116.577	-32.27	38.44	145.78	28.714	-25.480	-45.668	0.16516	-0.37299	-0.13837	0.90240	21.5	13111	90
2024-10-24 22:28:57.35	WT901BLE68(B2C0FB98454F)	-0.192	-0.373	0.196	-139.282	74.829	-111.938	-52.87	34.77	130.30	43.904	17.836	-27.832	0.16516	-0.37299	-0.13837	0.90240	21.5	13111	90
2024-10-24 22:28:57.154	WT901BLE68(B2C0FB98454F)	-0.711	-0.574	0.280	-138.245	60.608	-80.017	-73.23	30.90	119.23	43.904	17.836	-27.832	0.16516	-0.37299	-0.13837	0.90240	21.5	13111	90
2024-10-24 22:28:57.245	WT901BLE68(B2C0FB98454F)	-0.346	-0.947	0.031	-29.602	44.495	-51.147	-84.19	26.59	110.70	43.904	17.836	-27.832	0.27930	-0.51559	-0.46057	0.66629	21.5	13111	90
2024-10-24 22:28:57.365	WT901BLE68(B2C0FB98454F)	-0.353	-0.969	0.091	-27.771	-7.690	-0.610	-87.14	25.47	110.28	43.904	17.836	-27.832	0.27930	-0.51559	-0.46057	0.66629	21.5	13111	90
2024-10-24 22:28:57.455	WT901BLE68(B2C0FB98454F)	-0.375	-0.979	-0.098	10.376	-13.794	9.216	-87.30	25.24	111.75	41.650	29.596	-12.446	0.27930	-0.51559	-0.46057	0.66629	21.5	13111	90
2024-10-24 22:28:57.575	WT901BLE68(B2C0FB98454F)	-0.373	-0.958	-0.039	41.565	-19.043	24.719	-84.29	26.62	113.00	41.650	29.596	-12.446	0.27930	-0.51559	-0.46057	0.66629	21.5	13111	90
2024-10-24 22:28:57.635	WT901BLE68(B2C0FB98454F)	0.044	-0.786	0.114	46.631	-76.416	32.104	-78.37	28.18	118.75	41.650	29.596	-12.446	0.22052	-0.40677	-0.38846	0.79681	21.5	13111	90
2024-10-24 22:28:57.755	WT901BLE68(B2C0FB98454F)	-0.583	-0.840	0.220	163.330	-82.275	21.912	-62.05	28.14	132.47	41.650	29.596	-12.446	0.22052	-0.40677	-0.38846	0.79681	21.5	13111	90
2024-10-24 22:28:57.845	WT901BLE68(B2C0FB98454F)	-0.537	-0.790	0.500	109.375	-81.177	76.782	-47.34	28.69	139.04	39.004	3.528	-44.198	0.22052	-0.40677	-0.38846	0.79681	21.5	13111	90
2024-10-24 22:28:57.965	WT901BLE68(B2C0FB98454F)	-0.482	-0.516	0.654	126.282	-26.611	80.017	-31.56	31.06	149.53	39.004	3.528	-44.198	0.22052	-0.40677	-0.38846	0.79681	21.5	13111	90
2024-10-24 22:28:58.55	WT901BLE68(B2C0FB98454F)	-0.540	0.041	0.808	99.121	-62.500	73.181	-15.56	31.69	159.85	39.004	3.528	-44.198	0.22052	-0.40677	-0.38846	0.79681	21.5	13111	90
2024-10-24 22:28:58.175	WT901BLE68(B2C0FB98454F)	-0.410	0.067	1.085	84.778	-69.214	55.176	-2.25	26.73	168.97	39.004	3.528	-44.198	0.08859	-0.23203	0.00171	0.96863	21.5	13111	90
2024-10-24 22:28:58.235	WT901BLE68(B2C0FB98454F)	-0.412	0.409	1.175	49.072	-48.523	17.456	6.18	20.71	172.36	39.004	3.528	-44.198	0.08859	-0.23203	0.00171	0.96863	21.5	13111	90
2024-10-24 22:28:58.355	WT901BLE68(B2C0FB98454F)	-0.496	0.495	1.259	-26.672	25.208	12.024	8.51	19.50	173.27	22.736	-29.792	-45.570	0.08859	-0.23203	0.00171	0.96863	21.5	13111	90
2024-10-24 22:28:58.445	WT901BLE68(B2C0FB98454F)	-0.557	0.257	1.137	-86.609	82.703	-27.527	3.01	24.31	171.80	22.736	-29.792	-45.570	0.08859	-0.23203	0.00171	0.96863	21.5	13111	90
2024-10-24 22:28:58.565	WT901BLE68(B2C0FB98454F)	-0.671	-0.110	0.958	-101.013	88.806	-67.078	-8.71	32.71	164.63	22.736	-29.792	-45.570	0.11392	-0.29898	-0.04849	0.94614	21.5	13111	90
2024-10-24 22:28:58.655	WT901BLE68(B2C0FB98454F)	-0.426	-0.361	0.660	-93.750	62.561	-114.807	-24.99	36.49	149.69	41.944	2.548	-40.474	0.11392	-0.29898	-0.04849	0.94614	21.5	13111	90
2024-10-24 22:28:58.775	WT901BLE68(B2C0FB98454F)	-0.283	-0.429	0.279	-128.845	52.917	-123.352	-44.36	33.63	134.26	41.944	2.548	-40.474	0.11392	-0.29898	-0.04849	0.94614	21.5	13111	90
2024-10-24 22:28:58.865	WT901BLE68(B2C0FB98454F)	-0.372	-0.425	0.100	-178.711	83.740	-88.013	-66.10	29.76	120.90	41.944	2.548	-40.474	0.11392	-0.29898	-0.04849	0.94614	21.5	13111	90
2024-10-24 22:28:58.985	WT901BLE68(B2C0FB98454F)	-0.494	-1.026	0.232	-59.814	40.039	-49.011	-82.73	24.88	112.48	41.944	2.548	-40.474	0.28934	-0.49445	-0.44977	0.68512	21.5	13111	90
2024-10-24 22:28:59.45	WT901BLE68(B2C0FB98454F)	-0.191	-0.856	-0.091	11.780	2.808	3.052	-83.86	23.95	109.74	41.944	2.548	-40.474	0.28934	-0.49445	-0.44977	0.68512	21.5	13111	90
2024-10-24 22:28:59.165	WT901BLE68(B2C0FB98454F)	-0.492	-0.980	0.026	5.676	-9.277	7.385	-83.55	24.55	111.32	40.670	30.282	-13.916	0.28934	-0.49445	-0.44977	0.68512	21.5	13111	90
2024-10-24 22:28:59.255	WT901BLE68(B2C0FB98454F)	-0.442	-0.950	0.116	27.893	-10.681	13.733	-81.96	25.01	111.77	40.670	30.282	-13.916	0.28934	-0.49445	-0.44977	0.68512	21.5	13111	90
2024-10-24 22:28:59.375	WT901BLE68(B2C0FB98454F)	-0.250	-0.848	0.156	61.279	-65.186	40.588	-75.54	26.87	117.42	40.670	30.282	-13.916	0.27222	-0.45682	-0.40643	0.74292	21.5	13111	90
2024-10-24 22:28:59.465	WT901BLE68(B2C0FB98454F)	-0.399	-0.567	0.434	122.803	-98.206	40.405	-62.05	28.20	127.84	40.670	30.282	-13.916	0.27222	-0.45682	-0.40643	0.74292	21.5	13111	90
2024-10-24 22:28:59.585	WT901BLE68(B2C0FB98454F)	-0.584	-0.505	0.288	143.738	-15.015	57.312	-47.43	28.43	137.39	40.180	14.798	-38.318	0.27222	-0.45682	-0.40643	0.74292	21.5	13111	90
2024-10-24 22:28:59.645	WT901BLE68(B2C0FB98454F)	-0.730	-0.547	0.591	115.112	-30.701	91.431	-32.56	31.83	146.58	40.180	14.798	-38.318	0.27222	-0.45682	-0.40643	0.74292	21.5	13111	90
2024-10-24 22:28:59.765	WT901BLE68(B2C0FB98454F)	-0.394	-0.159	0.773	118.347	-44.250	91.064	-16.35	31.82	157.43	40.180	14.798	-38.318	0.14337	-0.28812	-0.07269	0.94394	21.5	13111	90
2024-10-24 22:28:59.855	WT901BLE68(B2C0FB98454F)	-0.464	-0.016	1.063	98.206	-62.256	66.467	-1.93	27.28	166.67	40.180	14.798	-38.318	0.14337	-0.28812	-0.07269	0.94394	21.5	13111	90
2024-10-24 22:28:59.975	WT901BLE68(B2C0FB98454F)	-0.410	0.360	1.204	59.204	-32.227	30.579	7.98	21.75	171.69	25.382	-28.420	-44.884	0.14337	-0.28812	-0.07269	0.94394	21.5	13111	90
2024-10-24 22:29:0.65	WT901BLE68(B2C0FB98454F)	-0.502	0.586	1.276	-25.574	12.573	7.874	11.06	20.19	173.44	25.382	-28.420	-44.884	0.14337	-0.28812	-0.07269	0.94394	21.5	13111	90
2024-10-24 22:29:0.185	WT901BLE68(B2C0FB98454F)	-0.531	0.286	1.120	-89.905	73.730	-32.410	5.49	23.85	171.84	25.382	-28.420	-44.884	0.08417	-0.21970	0.04227	0.97095	21.5	13111	90
2024-10-24 22:29:0.275	WT901BLE68(B2C0FB98454F)	-0.692	-0.030	0.935	-99.121	92.285	-79.285	-6.26	31.92	164.50	25.382	-28.420	-44.884	0.08417	-0.21970	0.04227	0.97095	21.5	13111	90
2024-10-24 22:29:0.399	WT901BLE68(B2C0FB98454F)	-0.488	-0.358	0.643	-100.830	69.702	-111.084	-22.74	36.90	149.64	39.004	-10.878	-43.512	0.08417	-0.21970	0.04227	0.97095	21.5	13111	90
2024-10-24 22:29:0.455	WT901BLE68(B2C0FB98454F)	-0.315	-0.427	0.305	-148.865	38.086	-114.441	-42.89	35.29	134.27	39.004	-10.878	-43.512	0.08417	-0.21970	0.04227	0.97095	21.5	13111	90
2024-10-24 22:29:0.575	WT901BLE68(B2C0FB98454F)	-0.343	-0.526	0.024	-169.495	64.331	-82.458	-64.58	31.71	121.83	39.004	-10.878	-43.512	0.26682	-0.46011	-0.35703	0.76779	21.5	13111	90
2024-10-24 22:29:0.665	WT901BLE68(B2C0FB98454F)	-0.561	-1.182	0.283	-43.152	23.926	-46.387	-79.00	27.04	115.76	39.004	-10.878	-43.512	0.26682	-0.46011	-0.35703	0.76779	21.5	13111	90
2024-10-24 22:29:0.784	WT901BLE68(B2C0FB98454F)	-0.241	-0.871	0.079	-11.353	4.517	-7.996	-81.91	24.70	112.14	40.670	29.498	-15.484	0.26682	-0.46011	-0.35703	0.76779	21.5	13111	90
2024-10-24 22:29:0.875	WT901BLE68(B2C0FB98454F)	-0.456	-0.989	0.008	6.042	10.803	-0.793	-82.55	24.78	113.13	40.670	29.498	-15.484	0.26682	-0.46011	-0.35703	0.76779	21.5	13111	90
2024-10-24 22:29:0.999	WT901BLE68(B2C0FB98454F)	-0.432	-0.957	0.057	-2.991	-18.127	7.996	-82.62	24.87	112.42	40.670	29.498	-15.484	0.28442	-0.49005	-0.44861	0.69107	21.5	13111	90
2024-10-24 22:29:1.55	WT901BLE68(B2C0FB98454F)	-0.366	-0.927	0.012	31.433	-16.052	17.517	-80.32	25.72	114.74	40.670	29.498	-15.484	0.28442	-0.49005	-0.44861	0.69107	21.5	13111	90
2024-10-24 22:29:1.175	WT901BLE68(B2C0FB98454F)	-0.437	-0.818	0.151	72.205	-67.200	41.748	-72.94	27.45	120.32	41.650	26.460	-22.638	0.28442	-0.49005	-0.44861	0.69107	21.5	13111	90
2024-10-24 22:29:1.265	WT901BLE68(B2C0FB98454F)	-0.304	-0.560	0.431	89.722	-73.730	42.358	-60.13	28.18	129.74	41.650	26.460	-22.638	0.28442	-0.49005	-0.44861	0.69107	21.5	13111	90
2024-10-24 22:29:1.385	WT901BLE68(B2C0FB98454F)	-0.500	-0.601	0.297	101.990	-10.071	70.435	-47.04	29.19	138.18	41.650	26.460	-22.638	0.21442	-0.34802	-0.26312	0.87384	21.5	13111	90
2024-10-24 22:29:1.475	WT901BLE68(B2C0FB98454F)	-0.553	-0.467	0.602	120.911	-33.997	66.895	-32.21	31.79	147.49	41.650	26.460	-22.638	0.21442	-0.34802	-0.26312	0.87384	21.5	13111	90
2024-10-24 22:29:1.599	WT901BLE68(B2C0FB98454F)	-0.434	-0.081	0.790	115.112	-38.696	72.876	-16.27	31.69	157.13	36.260	-11.270	-45.766	0.21442	-0.34802	-0.26312	0.87384	21.5	13111	90
2024-10-24 22:29:1.685	WT901BLE68(B2C0FB98454F)	-0.399	0.074	1.038	95.703	-63.416	50.903	-2.40	27.19	165.87	36.260	-11.270	-45.766	0.21442	-0.34802	-0.26312	0.87384	21.5	13111	90
2024-10-24 22:29:1.806	WT901BLE68(B2C0FB98454F)	-0.429	0.364	1.151	59.692	-33.569	36.560	6.90	21.51	170.15	36.260	-11.270	-45.766	0.08905	-0.17075	0.08716	0.97736	21.5	13111	90
2024-10-24 22:29:1.864	WT901BLE68(B2C0FB98454F)	-0.453	0.464	1.325	-23.193	16.846	15.747	9.41	20.50	172.12	36.260	-11.270	-45.766	0.08905	-0.17075	0.08716	0.97736	21.5	13111	90
2024-10-24 22:29:1.985	WT901BLE68(B2C0FB98454F)	-0.524	0.225	1.180	-77.271	70.435	-35.767	3.45	24.83	169.83	26.754	-26.558	-45.962	0.08905	-0.17075	0.08716	0.97736	21.5	13111	90
2024-10-24 22:29:2.75	WT901BLE68(B2C0FB98454F)	-0.671	-0.030	0.953	-98.572	92.773	-67.688	-8.37	32.62	162.06	26.754	-26.558	-45.962	0.08905	-0.17075	0.08716	0.97736	21.5	13111	90
2024-10-24 22:29:2.199	WT901BLE68(B2C0FB98454F)	-0.588	-0.304	0.604	-107.300	74.890	-94.177	-25.05	37.47	148.05	26.754	-26.558	-45.962	0.19711	-0.37079	-0.13177	0.89789	21.5	13111	90
2024-10-24 22:29:2.284	WT901BLE68(B2C0FB98454F)	-0.150	-0.268	0.208	-149.475	60.303	-81.665	-45.20	37.91	134.04	26.754	-26.558	-45.962	0.19711	-0.37079	-0.13177	0.89789	21.5	13111	90
2024-10-24 22:29:2.406	WT901BLE68(B2C0FB98454F)	-0.721	-0.514	0.377	-140.076	67.810	-89.905	-65.21	34.00	123.83	44.100	18.620	-27.440	0.19711	-0.37079	-0.13177	0.89789	21.5	13111	90
2024-10-24 22:29:2.465	WT901BLE68(B2C0FB98454F)	-0.265	-0.917	-0.007	-47.913	38.025	-32.349	-77.78	27.54	114.35	44.100	18.620	-27.440	0.19711	-0.37079	-0.13177	0.89789	21.5	13111	90
2024-10-24 22:29:2.585	WT901BLE68(B2C0FB98454F)	-0.399	-1.028	-0.033	-44.434	4.578	-20.142	-83.08	25.71	113.79	44.100	18.620	-27.440	0.27338	-0.49710	-0.46167	0.68182	21.5	13111	90
2024-10-24 22:29:2.675	WT901BLE68(B2C0FB98454F)	-0.460	-0.952	0.001	24.231	29.419	3.967	-85.26	25.21	111.75	44.100	18.620	-27.440	0.27338	-0.49710	-0.46167	0.68182	21.5	13111	90
2024-10-24 22:29:2.799	WT901BLE68(B2C0FB98454F)	-0.509	-0.936	0.032	24.658	4.089	14.343	-84.05	25.88	110.75	41.454	29.498	-13.230	0.27338	-0.49710	-0.46167	0.68182	21.5	13111	90
2024-10-24 22:29:2.885	WT901BLE68(B2C0FB98454F)	-0.160	-0.842	0.269	90.942	-55.359	47.424	-78.31	28.16	112.48	41.454	29.498	-13.230	0.27338	-0.49710	-0.46167	0.68182	21.5	13111	90
2024-10-24 22:29:3.6	WT901BLE68(B2C0FB98454F)	-0.427	-0.593	0.308	103.333	-88.257	45.959	-64.10	31.04	122.71	41.454	29.498	-13.230	0.26221	-0.42920	-0.32748	0.79980	21.5	13111	90
2024-10-24 22:29:3.107	WT901BLE68(B2C0FB98454F)	-0.454	-0.592	0.405	116.089	-27.710	55.847	-50.93	31.51	131.98	41.454	29.498	-13.230	0.26221	-0.42920	-0.32748	0.79980	21.5	13111	90
2024-10-24 22:29:3.214	WT901BLE68(B2C0FB98454F)	-0.449	-0.284	0.524	119.202	-15.076	79.163	-35.33	32.42	142.09	40.768	1.470	-42.336	0.26221	-0.42920	-0.32748	0.79980	21.5	13111	90
2024-10-24 22:29:3.275	WT901BLE68(B2C0FB98454F)	-0.507	-0.285	0.801	114.380	-38.025	72.937	-19.43	32.68	153.44	40.768	1.470	-42.336	0.26221	-0.42920	-0.32748	0.79980	21.5	13111	90
2024-10-24 22:29:3.399	WT901BLE68(B2C0FB98454F)	-0.405	-0.013	0.972	104.980	-70.313	58.533	-4.41	28.32	163.59	40.768	1.470	-42.336	0.11774	-0.21368	0.03256	0.96918	21.5	13111	90
2024-10-24 22:29:3.484	WT901BLE68(B2C0FB98454F)	-0.322	0.372	1.034	79.590	-63.171	22.583	6.34	20.95	168.18	40.768	1.470	-42.336	0.11774	-0.21368	0.03256	0.96918	21.5	13111	90
2024-10-24 22:29:3.635	WT901BLE68(B2C0FB98454F)	-0.359	0.483	1.240	14.099	4.272	23.682	12.11	17.80	170.49	22.344	-31.556	-44.394	0.11774	-0.21368	0.03256	0.96918	21.5	13111	90
2024-10-24 22:29:3.707	WT901BLE68(B2C0FB98454F)	-0.389	0.341	1.286	-59.631	43.579	-11.353	10.28	19.93	170.78	22.344	-31.556	-44.394	0.11774	-0.21368	0.03256	0.96918	21.5	13111	90
2024-10-24 22:29:3.814	WT901BLE68(B2C0FB98454F)	-0.581	0.115	1.071	-104.980	89.355	-45.776	1.07	26.63	167.00	22.344	-31.556	-44.394	0.12088	-0.25323	0.00970	0.95972	21.5	13111	90
2024-10-24 22:29:3.875	WT901BLE68(B2C0FB98454F)	-0.614	-0.186	0.871	-96.313	81.238	-84.167	-12.65	34.11	157.25	22.344	-31.556	-44.394	0.12088	-0.25323	0.00970	0.95972	21.5	13111	90
2024-10-24 22:29:3.999	WT901BLE68(B2C0FB98454F)	-0.388	-0.336	0.505	-108.276	53.589	-115.601	-30.39	35.86	142.09	41.846	-0.490	-41.258	0.12088	-0.25323	0.00970	0.95972	21.5	13111	90
2024-10-24 22:29:4.86	WT901BLE68(B2C0FB98454F)	-0.200	-0.355	0.281	-150.146	44.739	-111.023	-50.33	32.60	128.72	41.846	-0.490	-41.258	0.12088	-0.25323	0.00970	0.95972	21.5	13111	90
2024-10-24 22:29:4.205	WT901BLE68(B2C0FB98454F)	-0.488	-0.600	0.195	-156.433	68.176	-65.308	-71.13	28.41	118.04	41.846	-0.490	-41.258	0.28564	-0.48184	-0.41937	0.71432	21.5	13111	90
2024-10-24 22:29:4.305	WT901BLE68(B2C0FB98454F)	-0.383	-1.134	0.171	-26.855	10.864	-26.855	-80.27	25.17	113.11	41.846	-0.490	-41.258	0.28564	-0.48184	-0.41937	0.71432	21.5	13111	90
2024-10-24 22:29:4.414	WT901BLE68(B2C0FB98454F)	-0.365	-0.979	0.005	-3.906	-9.583	0.977	-82.30	24.34	112.63	40.376	30.184	-15.386	0.28564	-0.48184	-0.41937	0.71432	21.5	13111	90
2024-10-24 22:29:4.506	WT901BLE68(B2C0FB98454F)	-0.520	-0.975	0.015	21.423	13.794	9.949	-81.81	24.97	112.89	40.376	30.184	-15.386	0.28564	-0.48184	-0.41937	0.71432	21.5	13111	90
2024-10-24 22:29:4.624	WT901BLE68(B2C0FB98454F)	-0.264	-0.867	0.201	76.538	-55.481	42.603	-75.79	27.19	114.76	40.376	30.184	-15.386	0.27997	-0.46216	-0.38824	0.74646	21.5	13111	90
2024-10-24 22:29:4.685	WT901BLE68(B2C0FB98454F)	-0.457	-0.690	0.483	107.056	-90.515	42.114	-63.09	28.86	125.40	40.376	30.184	-15.386	0.27997	-0.46216	-0.38824	0.74646	21.5	13111	90
2024-10-24 22:29:4.805	WT901BLE68(B2C0FB98454F)	-0.442	-0.494	0.357	115.173	-57.983	42.419	-49.10	29.67	132.57	40.768	11.466	-39.494	0.27997	-0.46216	-0.38824	0.74646	21.5	13111	90
2024-10-24 22:29:4.900	WT901BLE68(B2C0FB98454F)	-0.405	-0.551	0.480	117.676	-10.071	84.473	-35.13	30.47	143.46	40.768	11.466	-39.494	0.27997	-0.46216	-0.38824	0.74646	21.5	13111	90
2024-10-24 22:29:5.14	WT901BLE68(B2C0FB98454F)	-0.537	-0.335	0.819	104.614	-48.157	78.613	-20.43	31.56	154.63	40.768	11.466	-39.494	0.13840	-0.27847	-0.06073	0.94843	21.5	13111	90
2024-10-24 22:29:5.107	WT901BLE68(B2C0FB98454F)	-0.375	0.023	1.002	91.797	-59.814	65.430	-5.83	29.04	164.60	40.768	11.466	-39.494	0.13840	-0.27847	-0.06073	0.94843	21.5	13111	90
2024-10-24 22:29:5.224	WT901BLE68(B2C0FB98454F)	-0.375	0.270	1.108	69.702	-65.796	39.673	4.88	23.13	170.49	24.696	-28.420	-45.374	0.13840	-0.27847	-0.06073	0.94843	21.5	13111	90
2024-10-24 22:29:5.285	WT901BLE68(B2C0FB98454F)	-0.374	0.445	1.229	19.897	-16.602	18.433	10.84	18.76	172.97	24.696	-28.420	-45.374	0.13840	-0.27847	-0.06073	0.94843	21.5	13111	90
2024-10-24 22:29:5.405	WT901BLE68(B2C0FB98454F)	-0.408	0.428	1.243	-47.363	17.151	-19.775	10.23	18.82	172.61	24.696	-28.420	-45.374	0.09265	-0.18176	0.06180	0.97696	21.5	13111	90
2024-10-24 22:29:5.507	WT901BLE68(B2C0FB98454F)	-0.520	0.217	1.118	-95.337	74.829	-49.133	2.68	23.48	168.59	24.696	-28.420	-45.374	0.09265	-0.18176	0.06180	0.97696	21.5	13111	90
2024-10-24 22:29:5.614	WT901BLE68(B2C0FB98454F)	-0.594	-0.122	0.894	-98.450	88.928	-80.811	-10.05	31.31	159.33	36.162	-13.720	-45.668	0.09265	-0.18176	0.06180	0.97696	21.5	13111	90
2024-10-24 22:29:5.707	WT901BLE68(B2C0FB98454F)	-0.410	-0.351	0.634	-107.788	55.603	-109.375	-26.26	34.37	145.18	36.162	-13.720	-45.668	0.09265	-0.18176	0.06180	0.97696	21.5	13111	90
2024-10-24 22:29:5.824	WT901BLE68(B2C0FB98454F)	-0.148	-0.413	0.257	-151.062	41.199	-114.136	-45.94	31.48	131.28	36.162	-13.720	-45.668	0.28323	-0.40967	-0.31668	0.80719	21.5	13111	90
2024-10-24 22:29:5.914	WT901BLE68(B2C0FB98454F)	-0.467	-0.524	0.188	-178.955	75.684	-56.458	-67.91	27.88	120.40	36.162	-13.720	-45.668	0.28323	-0.40967	-0.31668	0.80719	21.5	13111	90
2024-10-24 22:29:6.35	WT901BLE68(B2C0FB98454F)	-0.453	-1.149	0.240	-41.138	25.085	-37.170	-80.57	24.32	114.15	39.984	30.086	-15.484	0.28323	-0.40967	-0.31668	0.80719	21.5	13111	90
2024-10-24 22:29:6.106	WT901BLE68(B2C0FB98454F)	-0.336	-0.947	-0.006	-9.827	-24.841	6.653	-83.84	23.13	112.58	39.984	30.086	-15.484	0.28323	-0.40967	-0.31668	0.80719	21.5	13111	90
2024-10-24 22:29:6.214	WT901BLE68(B2C0FB98454F)	-0.517	-0.974	0.053	26.123	13.306	10.437	-83.01	23.94	113.89	39.984	30.086	-15.484	0.29587	-0.48544	-0.42950	0.70157	21.5	13111	90
2024-10-24 22:29:6.306	WT901BLE68(B2C0FB98454F)	-0.370	-0.905	0.162	73.853	-27.039	41.199	-77.69	26.01	113.85	39.984	30.086	-15.484	0.29587	-0.48544	-0.42950	0.70157	21.5	13111	90
2024-10-24 22:29:6.424	WT901BLE68(B2C0FB98454F)	-0.459	-0.690	0.035	106.445	-89.050	44.556	-65.02	28.65	123.98	41.454	18.424	-33.810	0.29587	-0.48544	-0.42950	0.70157	21.5	13111	90
2024-10-24 22:29:6.514	WT901BLE68(B2C0FB98454F)	-0.380	-0.749	0.390	137.634	-5.310	61.707	-51.11	29.49	132.64	41.454	18.424	-33.810	0.29587	-0.48544	-0.42950	0.70157	21.5	13111	90
2024-10-24 22:29:6.635	WT901BLE68(B2C0FB98454F)	-0.519	-0.583	0.528	120.850	-48.279	60.059	-36.37	29.72	142.68	41.454	18.424	-33.810	0.19638	-0.30698	-0.15433	0.91830	21.5	13111	90
2024-10-24 22:29:6.706	WT901BLE68(B2C0FB98454F)	-0.576	-0.308	0.630	103.271	-35.461	81.055	-21.93	30.40	152.57	41.454	18.424	-33.810	0.19638	-0.30698	-0.15433	0.91830	21.5	13111	90
2024-10-24 22:29:6.845	WT901BLE68(B2C0FB98454F)	-0.375	-0.102	0.835	105.896	-61.890	66.101	-7.52	28.54	162.13	30.184	-21.560	-46.354	0.19638	-0.30698	-0.15433	0.91830	21.5	13111	90
2024-10-24 22:29:6.907	WT901BLE68(B2C0FB98454F)	-0.257	0.232	1.075	86.731	-82.764	44.006	4.40	21.99	168.46	30.184	-21.560	-46.354	0.19638	-0.30698	-0.15433	0.91830	21.5	13111	90
2024-10-24 22:29:7.25	WT901BLE68(B2C0FB98454F)	-0.266	0.502	1.244	50.781	-50.903	19.775	12.05	15.83	170.42	30.184	-21.560	-46.354	0.09625	-0.11771	0.13007	0.97974	21.5	13111	90
2024-10-24 22:29:7.114	WT901BLE68(B2C0FB98454F)	-0.325	0.541	1.317	-17.273	12.817	-2.747	13.79	15.05	170.42	30.184	-21.560	-46.354	0.09625	-0.11771	0.13007	0.97974	21.5	13111	90
2024-10-24 22:29:7.235	WT901BLE68(B2C0FB98454F)	-0.399	0.375	1.142	-83.801	64.209	-25.635	7.87	18.98	168.34	27.538	-24.696	-46.942	0.09625	-0.11771	0.13007	0.97974	21.5	13111	90
2024-10-24 22:29:7.323	WT901BLE68(B2C0FB98454F)	-0.636	0.065	0.996	-109.436	89.294	-56.213	-3.26	26.83	162.54	27.538	-24.696	-46.942	0.09625	-0.11771	0.13007	0.97974	21.5	13111	90
2024-10-24 22:29:7.445	WT901BLE68(B2C0FB98454F)	-0.496	-0.231	0.824	-99.792	75.195	-97.290	-17.80	33.06	150.42	27.538	-24.696	-46.942	0.24039	-0.34354	-0.13669	0.89743	21.5	13111	90
2024-10-24 22:29:7.506	WT901BLE68(B2C0FB98454F)	-0.256	-0.363	0.428	-135.742	45.349	-111.572	-36.04	32.85	136.05	27.538	-24.696	-46.942	0.24039	-0.34354	-0.13669	0.89743	21.5	13111	90
2024-10-24 22:29:7.625	WT901BLE68(B2C0FB98454F)	-0.282	-0.443	0.215	-166.748	67.993	-84.961	-57.05	29.40	124.15	41.748	22.246	-26.558	0.24039	-0.34354	-0.13669	0.89743	21.5	13111	90
2024-10-24 22:29:7.714	WT901BLE68(B2C0FB98454F)	-0.487	-0.907	0.210	-104.126	28.625	-52.551	-76.79	26.23	114.07	41.748	22.246	-26.558	0.24039	-0.34354	-0.13669	0.89743	21.5	13111	90
2024-10-24 22:29:7.835	WT901BLE68(B2C0FB98454F)	-0.393	-1.001	-0.115	-11.719	19.226	-4.517	-82.56	23.48	110.30	41.748	22.246	-26.558	0.30676	-0.49567	-0.44516	0.67966	21.5	13111	90
2024-10-24 22:29:7.925	WT901BLE68(B2C0FB98454F)	-0.414	-0.952	0.013	9.216	-2.258	6.042	-82.69	23.66	110.56	41.748	22.246	-26.558	0.30676	-0.49567	-0.44516	0.67966	21.5	13111	90
2024-10-24 22:29:8.45	WT901BLE68(B2C0FB98454F)	-0.385	-0.983	0.021	49.622	-4.944	20.020	-80.63	24.77	111.62	41.748	27.342	-19.992	0.30676	-0.49567	-0.44516	0.67966	21.5	13111	90
2024-10-24 22:29:8.106	WT901BLE68(B2C0FB98454F)	-0.150	-0.810	0.183	66.345	-78.125	45.776	-72.66	27.27	117.08	41.748	27.342	-19.992	0.30676	-0.49567	-0.44516	0.67966	21.5	13111	90
2024-10-24 22:29:8.224	WT901BLE68(B2C0FB98454F)	-0.610	-0.636	0.301	126.221	-65.796	44.006	-58.88	27.41	128.09	41.748	27.342	-19.992	0.25223	-0.36407	-0.27689	0.85269	21.5	13111	90
2024-10-24 22:29:8.314	WT901BLE68(B2C0FB98454F)	-0.583	-0.552	0.352	89.478	-38.635	75.623	-44.42	29.60	136.40	41.748	27.342	-19.992	0.25223	-0.36407	-0.27689	0.85269	21.5	13111	90
2024-10-24 22:29:8.435	WT901BLE68(B2C0FB98454F)	-0.550	-0.521	0.645	118.164	-45.044	79.163	-29.89	31.13	147.19	37.044	-7.546	-45.864	0.25223	-0.36407	-0.27689	0.85269	21.5	13111	90
2024-10-24 22:29:8.525	WT901BLE68(B2C0FB98454F)	-0.465	-0.232	0.847	115.723	-52.002	72.388	-13.90	29.88	157.63	37.044	-7.546	-45.864	0.25223	-0.36407	-0.27689	0.85269	21.5	13111	90
2024-10-24 22:29:8.645	WT901BLE68(B2C0FB98454F)	-0.271	0.103	1.074	89.905	-59.448	63.843	0.05	25.89	166.71	37.044	-7.546	-45.864	0.09012	-0.17703	0.08032	0.97672	21.5	13111	90
2024-10-24 22:29:8.735	WT901BLE68(B2C0FB98454F)	-0.408	0.361	1.238	53.101	-42.542	23.254	8.75	20.47	171.15	37.044	-7.546	-45.864	0.09012	-0.17703	0.08032	0.97672	21.5	13111	90
2024-10-24 22:29:8.856	WT901BLE68(B2C0FB98454F)	-0.395	0.493	1.240	-15.015	3.723	0.916	10.72	18.56	171.35	23.618	-29.008	-46.060	0.09012	-0.17703	0.08032	0.97672	21.5	13111	90
2024-10-24 22:29:8.914	WT901BLE68(B2C0FB98454F)	-0.450	0.282	1.243	-78.430	47.485	-34.058	5.38	20.99	169.17	23.618	-29.008	-46.060	0.09012	-0.17703	0.08032	0.97672	21.5	13111	90
2024-10-24 22:29:9.35	WT901BLE68(B2C0FB98454F)	-0.613	0.036	1.004	-105.347	93.262	-62.439	-5.82	28.26	162.22	23.618	-29.008	-46.060	0.09012	-0.17703	0.08032	0.97672	21.5	13111	90
2024-10-24 22:29:9.124	WT901BLE68(B2C0FB98454F)	-0.457	-0.340	0.776	-101.196	67.078	-99.365	-21.13	33.41	149.35	23.618	-29.008	-46.060	0.20071	-0.32214	-0.10056	0.91962	21.5	13111	90
2024-10-24 22:29:9.245	WT901BLE68(B2C0FB98454F)	-0.356	-0.383	0.383	-127.136	55.298	-104.431	-39.53	32.39	135.27	41.846	12.740	-36.162	0.20071	-0.32214	-0.10056	0.91962	21.5	13111	90
2024-10-24 22:29:9.335	WT901BLE68(B2C0FB98454F)	-0.283	-0.453	0.181	-156.006	76.782	-78.918	-59.49	29.42	123.53	41.846	12.740	-36.162	0.20071	-0.32214	-0.10056	0.91962	21.5	13111	90
2024-10-24 22:29:9.455	WT901BLE68(B2C0FB98454F)	-0.516	-0.912	0.239	-107.849	35.522	-53.223	-76.59	26.20	115.50	41.846	12.740	-36.162	0.29446	-0.48172	-0.44556	0.69470	21.5	13111	90
2024-10-24 22:29:9.514	WT901BLE68(B2C0FB98454F)	-0.282	-0.941	-0.027	-19.836	1.465	-2.686	-81.28	23.98	113.37	41.846	12.740	-36.162	0.29446	-0.48172	-0.44556	0.69470	21.5	13111	90
2024-10-24 22:29:9.635	WT901BLE68(B2C0FB98454F)	-0.504	-0.989	0.035	-4.211	16.479	-1.404	-82.64	23.89	113.30	41.846	12.740	-36.162	0.29446	-0.48172	-0.44556	0.69470	21.5	13111	90
2024-10-24 22:29:9.725	WT901BLE68(B2C0FB98454F)	-0.193	-0.941	0.143	62.927	11.658	25.024	-80.19	25.09	111.38	40.768	29.596	-15.778	0.29446	-0.48172	-0.44556	0.69470	21.5	13111	90
2024-10-24 22:29:9.845	WT901BLE68(B2C0FB98454F)	-0.224	-0.678	0.109	100.769	-85.876	50.598	-67.36	28.11	120.02	40.768	29.596	-15.778	0.29446	-0.48172	-0.44556	0.69470	21.5	13111	90
2024-10-24 22:29:9.935	WT901BLE68(B2C0FB98454F)	-0.257	-0.633	0.219	115.051	-33.142	54.688	-54.77	29.03	128.59	40.768	29.596	-15.778	0.26700	-0.39032	-0.29779	0.82919	21.5	13111	90
2024-10-24 22:29:10.56	WT901BLE68(B2C0FB98454F)	-0.609	-0.410	0.631	98.022	-60.913	70.190	-40.37	29.38	139.77	39.004	0.784	-44.492	0.26700	-0.39032	-0.29779	0.82919	21.5	13111	90
2024-10-24 22:29:10.145	WT901BLE68(B2C0FB98454F)	-0.512	-0.145	0.709	113.647	-40.405	78.369	-25.66	30.72	149.92	39.004	0.784	-44.492	0.26700	-0.39032	-0.29779	0.82919	21.5	13111	90
2024-10-24 22:29:10.265	WT901BLE68(B2C0FB98454F)	-0.403	-0.195	0.948	123.047	-28.687	68.420	-10.20	28.64	160.01	39.004	0.784	-44.492	0.10861	-0.20663	0.04095	0.97147	21.5	13111	90
2024-10-24 22:29:10.324	WT901BLE68(B2C0FB98454F)	-0.327	0.161	1.083	97.046	-59.021	60.059	2.94	23.93	168.02	39.004	0.784	-44.492	0.10861	-0.20663	0.04095	0.97147	21.5	13111	90
2024-10-24 22:29:10.445	WT901BLE68(B2C0FB98454F)	-0.328	0.495	1.221	38.513	-28.259	27.161	11.29	18.63	171.36	39.004	0.784	-44.492	0.10861	-0.20663	0.04095	0.97147	21.5	13111	90
2024-10-24 22:29:10.535	WT901BLE68(B2C0FB98454F)	-0.350	0.474	1.234	-37.720	15.625	-4.578	12.49	17.84	171.93	21.952	-32.144	-44.296	0.10861	-0.20663	0.04095	0.97147	21.5	13111	90
2024-10-24 22:29:10.655	WT901BLE68(B2C0FB98454F)	-0.461	0.271	1.170	-93.384	56.458	-35.950	5.64	21.16	169.10	21.952	-32.144	-44.296	0.12836	-0.24240	-0.00226	0.96158	21.5	13111	90
2024-10-24 22:29:10.745	WT901BLE68(B2C0FB98454F)	-0.599	-0.064	0.961	-103.149	110.718	-64.148	-6.14	29.16	162.28	21.952	-32.144	-44.296	0.12836	-0.24240	-0.00226	0.96158	21.5	13111	90
2024-10-24 22:29:10.866	WT901BLE68(B2C0FB98454F)	-0.535	-0.384	0.713	-103.882	70.984	-108.032	-22.02	35.05	148.50	41.944	0.490	-41.062	0.12836	-0.24240	-0.00226	0.96158	21.5	13111	90
2024-10-24 22:29:10.924	WT901BLE68(B2C0FB98454F)	-0.282	-0.361	0.299	-132.324	51.697	-121.704	-41.54	33.44	133.10	41.944	0.490	-41.062	0.12836	-0.24240	-0.00226	0.96158	21.5	13111	90
2024-10-24 22:29:11.45	WT901BLE68(B2C0FB98454F)	-0.319	-0.427	0.203	-169.067	64.880	-72.144	-62.56	30.19	121.98	41.944	0.490	-41.062	0.12836	-0.24240	-0.00226	0.96158	21.5	13111	90
2024-10-24 22:29:11.135	WT901BLE68(B2C0FB98454F)	-0.503	-1.017	0.276	-61.035	23.254	-55.237	-78.94	26.46	114.24	41.944	0.490	-41.062	0.28500	-0.48465	-0.42487	0.70941	21.5	13111	90
2024-10-24 22:29:11.256	WT901BLE68(B2C0FB98454F)	-0.291	-0.979	-0.048	-29.053	-7.751	-6.226	-83.54	23.96	112.05	41.944	0.490	-41.062	0.28500	-0.48465	-0.42487	0.70941	21.5	13111	90
2024-10-24 22:29:11.345	WT901BLE68(B2C0FB98454F)	-0.456	-1.014	0.047	6.653	6.287	2.869	-84.49	23.80	113.06	39.886	30.968	-14.014	0.28500	-0.48465	-0.42487	0.70941	21.5	13111	90
2024-10-24 22:29:11.465	WT901BLE68(B2C0FB98454F)	-0.279	-0.945	0.063	61.584	9.644	25.269	-81.32	25.00	112.03	39.886	30.968	-14.014	0.28500	-0.48465	-0.42487	0.70941	21.5	13111	90
2024-10-24 22:29:11.555	WT901BLE68(B2C0FB98454F)	0.093	-0.635	0.063	69.946	-37.598	41.565	-71.26	28.18	117.65	39.886	30.968	-14.014	0.28265	-0.45581	-0.37683	0.75513	21.5	13111	90
2024-10-24 22:29:11.675	WT901BLE68(B2C0FB98454F)	-0.313	-0.854	0.476	113.770	-66.284	37.964	-57.77	28.65	129.79	39.886	30.968	-14.014	0.28265	-0.45581	-0.37683	0.75513	21.5	13111	90
2024-10-24 22:29:11.735	WT901BLE68(B2C0FB98454F)	-0.554	-0.387	0.553	110.718	-73.792	70.435	-43.03	30.81	137.49	40.866	8.526	-40.572	0.28265	-0.45581	-0.37683	0.75513	21.5	13111	90
2024-10-24 22:29:11.855	WT901BLE68(B2C0FB98454F)	-0.431	-0.338	0.636	129.822	-13.367	79.590	-27.87	31.20	148.91	40.866	8.526	-40.572	0.28265	-0.45581	-0.37683	0.75513	21.5	13111	90
2024-10-24 22:29:11.945	WT901BLE68(B2C0FB98454F)	-0.332	-0.124	0.840	118.164	-41.504	62.622	-12.39	29.79	159.08	40.866	8.526	-40.572	0.14554	-0.26871	-0.05231	0.95068	21.5	13111	90
2024-10-24 22:29:12.65	WT901BLE68(B2C0FB98454F)	-0.282	0.112	1.001	88.379	-72.815	52.795	0.65	24.66	166.37	40.866	8.526	-40.572	0.14554	-0.26871	-0.05231	0.95068	21.5	13111	90
2024-10-24 22:29:12.155	WT901BLE68(B2C0FB98454F)	-0.355	0.336	1.230	58.716	-43.884	26.917	8.90	18.38	170.11	23.618	-28.812	-45.668	0.14554	-0.26871	-0.05231	0.95068	21.5	13111	90
2024-10-24 22:29:12.275	WT901BLE68(B2C0FB98454F)	-0.374	0.441	1.356	-12.817	13.733	3.601	11.02	16.86	170.78	23.618	-28.812	-45.668	0.14554	-0.26871	-0.05231	0.95068	21.5	13111	90
2024-10-24 22:29:12.335	WT901BLE68(B2C0FB98454F)	-0.507	0.277	1.213	-76.477	50.964	-33.813	5.33	19.92	168.11	23.618	-28.812	-45.668	0.11548	-0.17853	0.04886	0.97586	21.5	13111	90
2024-10-24 22:29:12.455	WT901BLE68(B2C0FB98454F)	-0.470	-0.007	0.971	-104.675	97.717	-54.932	-5.73	27.08	161.56	23.618	-28.812	-45.668	0.11548	-0.17853	0.04886	0.97586	21.5	13111	90
2024-10-24 22:29:12.545	WT901BLE68(B2C0FB98454F)	-0.476	-0.375	0.739	-100.037	78.918	-91.614	-20.85	32.82	150.13	38.220	-8.134	-45.080	0.11548	-0.17853	0.04886	0.97586	21.5	13111	90
2024-10-24 22:29:12.665	WT901BLE68(B2C0FB98454F)	0.382	-0.273	0.432	-123.779	59.998	-105.652	-38.30	33.31	135.42	38.220	-8.134	-45.080	0.11548	-0.17853	0.04886	0.97586	21.5	13111	90
2024-10-24 22:29:12.755	WT901BLE68(B2C0FB98454F)	-0.242	-2.945	-0.693	-275.879	551.025	-720.642	-61.43	29.24	118.26	38.220	-8.134	-45.080	0.36694	-0.46378	-0.34464	0.72894	21.5	13111	90
2024-10-24 22:29:12.875	WT901BLE68(B2C0FB98454F)	-0.335	-1.155	0.351	-85.388	-17.578	-22.705	-76.59	20.99	111.15	38.220	-8.134	-45.080	0.36694	-0.46378	-0.34464	0.72894	21.5	13111	90
2024-10-24 22:29:12.965	WT901BLE68(B2C0FB98454F)	-0.386	-0.988	-0.124	-0.977	35.889	-21.545	-78.48	19.12	110.16	37.142	32.438	-17.934	0.36694	-0.46378	-0.34464	0.72894	21.5	13111	90
2024-10-24 22:29:13.85	WT901BLE68(B2C0FB98454F)	-0.307	-0.920	0.170	-25.330	-4.822	-14.648	-81.43	17.07	108.24	37.142	32.438	-17.934	0.36694	-0.46378	-0.34464	0.72894	21.5	13111	90
2024-10-24 22:29:13.145	WT901BLE68(B2C0FB98454F)	-0.255	-0.985	0.134	-4.700	6.714	-2.197	-83.16	16.61	108.71	37.142	32.438	-17.934	0.35239	-0.47189	-0.47238	0.65564	21.5	13111	90
2024-10-24 22:29:13.265	WT901BLE68(B2C0FB98454F)	-0.292	-0.928	0.052	4.639	6.470	-2.197	-83.42	16.53	108.79	37.142	32.438	-17.934	0.35239	-0.47189	-0.47238	0.65564	21.5	13111	90
2024-10-24 22:29:13.356	WT901BLE68(B2C0FB98454F)	-0.288	-0.979	0.101	-4.395	11.780	-1.221	-84.09	16.60	107.56	35.476	35.084	-12.152	0.35239	-0.47189	-0.47238	0.65564	21.5	13111	90
2024-10-24 22:29:13.475	WT901BLE68(B2C0FB98454F)	-0.244	-0.993	0.015	-11.292	2.502	-0.427	-85.12	16.62	106.84	35.476	35.084	-12.152	0.35239	-0.47189	-0.47238	0.65564	21.5	13111	90
2024-10-24 22:29:13.565	WT901BLE68(B2C0FB98454F)	-0.243	-0.992	-0.015	-4.456	2.197	-0.854	-86.00	16.55	107.05	35.476	35.084	-12.152	0.35025	-0.48639	-0.48169	0.63922	21.5	13111	90
2024-10-24 22:29:13.685	WT901BLE68(B2C0FB98454F)	-0.228	-1.047	-0.055	18.066	-6.958	12.939	-85.46	16.78	107.58	35.476	35.084	-12.152	0.35025	-0.48639	-0.48169	0.63922	21.5	13111	90
2024-10-24 22:29:13.745	WT901BLE68(B2C0FB98454F)	-0.466	-1.051	0.178	76.050	-57.373	45.044	-80.57	19.20	110.85	37.436	33.124	-15.974	0.35025	-0.48639	-0.48169	0.63922	21.5	13111	90
2024-10-24 22:29:13.865	WT901BLE68(B2C0FB98454F)	0.017	-0.798	0.134	73.059	-103.638	33.691	-69.07	20.98	119.47	37.436	33.124	-15.974	0.35025	-0.48639	-0.48169	0.63922	21.5	13111	90
2024-10-24 22:29:13.955	WT901BLE68(B2C0FB98454F)	-0.518	-0.705	0.499	143.005	8.789	27.405	-55.16	21.63	127.81	37.436	33.124	-15.974	0.30963	-0.34470	-0.30026	0.83368	21.5	13111	90
2024-10-24 22:29:14.75	WT901BLE68(B2C0FB98454F)	-0.543	-0.385	0.604	113.953	-25.085	87.158	-40.40	26.10	134.24	37.436	33.124	-15.974	0.30963	-0.34470	-0.30026	0.83368	21.5	13111	90
2024-10-24 22:29:14.165	WT901BLE68(B2C0FB98454F)	-0.518	-0.271	0.779	114.136	-15.259	80.933	-26.39	28.19	143.79	37.828	-3.724	-45.472	0.30963	-0.34470	-0.30026	0.83368	21.5	13111	90
2024-10-24 22:29:14.285	WT901BLE68(B2C0FB98454F)	-0.434	-0.075	0.869	104.431	-37.109	69.397	-11.88	27.97	153.27	37.828	-3.724	-45.472	0.30963	-0.34470	-0.30026	0.83368	21.5	13111	90
2024-10-24 22:29:14.375	WT901BLE68(B2C0FB98454F)	-0.480	0.116	1.075	77.576	-49.622	53.772	0.20	24.57	160.91	37.828	-3.724	-45.472	0.15796	-0.20316	0.04477	0.96524	21.5	13111	90
2024-10-24 22:29:14.498	WT901BLE68(B2C0FB98454F)	-0.490	0.353	1.305	29.602	-14.404	20.935	6.91	21.64	164.54	37.828	-3.724	-45.472	0.15796	-0.20316	0.04477	0.96524	21.5	13111	90
2024-10-24 22:29:14.555	WT901BLE68(B2C0FB98454F)	-0.399	0.290	1.307	-48.767	15.625	-16.296	5.43	22.27	164.49	27.538	-26.558	-45.472	0.15796	-0.20316	0.04477	0.96524	21.5	13111	90
2024-10-24 22:29:14.675	WT901BLE68(B2C0FB98454F)	-0.579	0.115	1.071	-96.252	54.199	-48.035	-3.42	25.99	160.02	27.538	-26.558	-45.472	0.15796	-0.20316	0.04477	0.96524	21.5	13111	90
2024-10-24 22:29:14.764	WT901BLE68(B2C0FB98454F)	-0.507	-0.055	0.862	-95.459	73.425	-82.825	-16.74	31.71	149.48	27.538	-26.558	-45.472	0.23334	-0.31760	-0.09415	0.91418	21.5	13111	90
2024-10-24 22:29:14.885	WT901BLE68(B2C0FB98454F)	-0.332	-0.484	0.667	-112.122	47.363	-101.013	-32.78	32.20	136.28	27.538	-26.558	-45.472	0.23334	-0.31760	-0.09415	0.91418	21.5	13111	90
2024-10-24 22:29:14.975	WT901BLE68(B2C0FB98454F)	-0.334	-0.456	0.226	-123.596	27.283	-124.512	-49.92	27.85	123.70	40.474	16.562	-34.888	0.23334	-0.31760	-0.09415	0.91418	21.5	13111	90
2024-10-24 22:29:15.98	WT901BLE68(B2C0FB98454F)	-0.200	-0.524	0.193	-150.879	55.481	-68.542	-66.77	21.25	114.61	40.474	16.562	-34.888	0.23334	-0.31760	-0.09415	0.91418	21.5	13111	90
2024-10-24 22:29:15.154	WT901BLE68(B2C0FB98454F)	-0.212	-1.235	0.299	-33.691	-14.404	-26.245	-77.89	17.81	111.24	40.474	16.562	-34.888	0.35480	-0.44940	-0.45340	0.68298	21.5	13111	90
2024-10-24 22:29:15.275	WT901BLE68(B2C0FB98454F)	-0.391	-0.999	0.069	17.578	24.841	4.272	-78.82	17.23	109.96	40.474	16.562	-34.888	0.35480	-0.44940	-0.45340	0.68298	21.5	13111	90
2024-10-24 22:29:15.364	WT901BLE68(B2C0FB98454F)	-0.076	-0.924	0.118	5.676	-31.616	8.545	-78.21	17.72	109.93	36.456	33.124	-17.738	0.35480	-0.44940	-0.45340	0.68298	21.5	13111	90
2024-10-24 22:29:15.484	WT901BLE68(B2C0FB98454F)	-0.321	-1.045	0.288	65.857	-59.265	46.875	-74.50	18.93	115.25	36.456	33.124	-17.738	0.35480	-0.44940	-0.45340	0.68298	21.5	13111	90
2024-10-24 22:29:15.575	WT901BLE68(B2C0FB98454F)	-0.491	-0.670	0.183	107.422	-35.767	36.926	-62.35	20.21	123.11	36.456	33.124	-17.738	0.31479	-0.35788	-0.34930	0.80667	21.5	13111	90
2024-10-24 22:29:15.698	WT901BLE68(B2C0FB98454F)	-0.364	-0.510	0.299	120.972	-3.845	72.083	-49.48	23.57	129.60	36.456	33.124	-17.738	0.31479	-0.35788	-0.34930	0.80667	21.5	13111	90
2024-10-24 22:29:15.784	WT901BLE68(B2C0FB98454F)	-0.385	-0.453	0.555	128.296	-5.188	74.036	-35.63	26.25	138.86	38.220	3.136	-44.786	0.31479	-0.35788	-0.34930	0.80667	21.5	13111	90
2024-10-24 22:29:15.906	WT901BLE68(B2C0FB98454F)	-0.491	-0.351	0.781	116.028	-27.222	66.772	-20.81	27.62	147.76	38.220	3.136	-44.786	0.31479	-0.35788	-0.34930	0.80667	21.5	13111	90
2024-10-24 22:29:15.964	WT901BLE68(B2C0FB98454F)	-0.409	-0.044	0.929	104.614	-52.795	61.829	-6.61	26.78	155.70	38.220	3.136	-44.786	0.17313	-0.20987	0.03741	0.96149	21.5	13111	90
2024-10-24 22:29:16.85	WT901BLE68(B2C0FB98454F)	-0.473	0.308	1.046	79.529	-48.584	50.110	4.93	22.61	162.23	38.220	3.136	-44.786	0.17313	-0.20987	0.03741	0.96149	21.5	13111	90
2024-10-24 22:29:16.175	WT901BLE68(B2C0FB98454F)	-0.446	0.526	1.183	27.710	-9.521	19.104	11.43	19.47	164.96	25.676	-30.282	-43.512	0.17313	-0.20987	0.03741	0.96149	21.5	13111	90
2024-10-24 22:29:16.298	WT901BLE68(B2C0FB98454F)	-0.426	0.419	1.295	-56.030	15.320	-13.916	10.00	19.74	164.67	25.676	-30.282	-43.512	0.17313	-0.20987	0.03741	0.96149	21.5	13111	90
2024-10-24 22:29:16.384	WT901BLE68(B2C0FB98454F)	-0.526	0.155	1.097	-114.807	59.998	-39.795	0.66	23.54	160.99	25.676	-30.282	-43.512	0.17670	-0.23340	-0.00238	0.95615	21.5	13111	90
2024-10-24 22:29:16.506	WT901BLE68(B2C0FB98454F)	-0.565	-0.140	0.923	-110.596	76.477	-79.102	-13.51	29.87	152.01	25.676	-30.282	-43.512	0.17670	-0.23340	-0.00238	0.95615	21.5	13111	90
2024-10-24 22:29:16.564	WT901BLE68(B2C0FB98454F)	-0.538	-0.470	0.610	-103.027	55.786	-100.098	-29.77	31.74	138.63	40.964	1.764	-41.846	0.17670	-0.23340	-0.00238	0.95615	21.5	13111	90
2024-10-24 22:29:16.685	WT901BLE68(B2C0FB98454F)	-0.116	-0.256	0.316	-125.305	35.339	-101.990	-46.51	28.86	126.22	40.964	1.764	-41.846	0.17670	-0.23340	-0.00238	0.95615	21.5	13111	90
2024-10-24 22:29:16.775	WT901BLE68(B2C0FB98454F)	-0.255	-0.678	0.255	-149.231	51.453	-89.355	-64.33	23.27	118.66	40.964	1.764	-41.846	0.34045	-0.43973	-0.42474	0.71429	21.5	13111	90
2024-10-24 22:29:16.897	WT901BLE68(B2C0FB98454F)	-0.207	-0.879	0.201	-69.885	36.011	-60.791	-78.15	17.61	111.36	40.964	1.764	-41.846	0.34045	-0.43973	-0.42474	0.71429	21.5	13111	90
2024-10-24 22:29:16.985	WT901BLE68(B2C0FB98454F)	-0.206	-1.009	0.030	-20.447	3.418	-7.324	-81.57	15.56	111.06	34.790	34.888	-14.896	0.34045	-0.43973	-0.42474	0.71429	21.5	13111	90
2024-10-24 22:29:17.104	WT901BLE68(B2C0FB98454F)	-0.275	-0.959	0.018	5.493	7.080	-7.751	-82.55	15.02	111.03	34.790	34.888	-14.896	0.34045	-0.43973	-0.42474	0.71429	21.5	13111	90
2024-10-24 22:29:17.204	WT901BLE68(B2C0FB98454F)	-0.257	-1.006	0.039	-2.380	0.305	4.944	-82.42	14.99	110.17	34.790	34.888	-14.896	0.35498	-0.45566	-0.47769	0.66187	21.5	13111	90
2024-10-24 22:29:17.314	WT901BLE68(B2C0FB98454F)	-0.298	-1.024	0.096	16.602	-18.799	18.860	-81.24	16.00	111.02	34.790	34.888	-14.896	0.35498	-0.45566	-0.47769	0.66187	21.5	13111	90
2024-10-24 22:29:17.375	WT901BLE68(B2C0FB98454F)	-0.199	-0.921	0.250	83.679	-43.640	42.969	-75.82	18.17	114.75	37.044	30.184	-24.402	0.35498	-0.45566	-0.47769	0.66187	21.5	13111	90
2024-10-24 22:29:17.498	WT901BLE68(B2C0FB98454F)	-0.432	-0.710	0.345	134.277	-61.279	47.485	-61.68	20.59	123.26	37.044	30.184	-24.402	0.35498	-0.45566	-0.47769	0.66187	21.5	13111	90
2024-10-24 22:29:17.584	WT901BLE68(B2C0FB98454F)	-0.579	-0.368	0.368	128.906	-36.011	76.721	-48.03	23.54	129.71	37.044	30.184	-24.402	0.27551	-0.31110	-0.22644	0.88086	21.5	13111	90
2024-10-24 22:29:17.706	WT901BLE68(B2C0FB98454F)	-0.633	-0.488	0.611	113.647	-27.832	78.735	-33.96	26.37	139.04	37.044	30.184	-24.402	0.27551	-0.31110	-0.22644	0.88086	21.5	13111	90
2024-10-24 22:29:17.804	WT901BLE68(B2C0FB98454F)	-0.464	-0.290	0.851	120.728	-28.809	69.824	-19.32	26.90	148.30	34.692	-12.544	-46.746	0.27551	-0.31110	-0.22644	0.88086	21.5	13111	90
2024-10-24 22:29:17.914	WT901BLE68(B2C0FB98454F)	-0.344	-0.032	1.060	96.985	-46.936	57.983	-5.75	25.10	156.41	34.692	-12.544	-46.746	0.27551	-0.31110	-0.22644	0.88086	21.5	13111	90
2024-10-24 22:29:17.976	WT901BLE68(B2C0FB98454F)	-0.479	0.347	1.228	51.331	-25.696	27.100	3.77	21.35	161.29	34.692	-12.544	-46.746	0.16086	-0.16693	0.07581	0.96976	21.5	13111	90
2024-10-24 22:29:18.97	WT901BLE68(B2C0FB98454F)	-0.451	0.350	1.340	-30.090	17.639	-3.052	5.55	20.46	162.16	34.692	-12.544	-46.746	0.16086	-0.16693	0.07581	0.96976	21.5	13111	90
2024-10-24 22:29:18.184	WT901BLE68(B2C0FB98454F)	-0.467	0.143	1.164	-92.346	47.424	-44.983	-1.31	23.18	158.52	32.046	-18.816	-47.040	0.16086	-0.16693	0.07581	0.96976	21.5	13111	90
2024-10-24 22:29:18.306	WT901BLE68(B2C0FB98454F)	-0.515	-0.160	0.915	-105.347	75.073	-76.782	-14.04	28.91	149.87	32.046	-18.816	-47.040	0.16086	-0.16693	0.07581	0.96976	21.5	13111	90
2024-10-24 22:29:18.403	WT901BLE68(B2C0FB98454F)	-0.479	-0.431	0.650	-100.464	42.908	-102.112	-29.19	30.23	136.92	32.046	-18.816	-47.040	0.31976	-0.35272	-0.20428	0.85529	21.5	13111	90
2024-10-24 22:29:18.514	WT901BLE68(B2C0FB98454F)	-0.347	-0.337	0.360	-142.578	28.076	-103.699	-45.97	26.94	125.10	32.046	-18.816	-47.040	0.31976	-0.35272	-0.20428	0.85529	21.5	13111	90
2024-10-24 22:29:18.605	WT901BLE68(B2C0FB98454F)	0.031	-0.443	0.275	-184.204	40.100	-50.964	-65.00	23.41	117.63	38.416	28.224	-23.226	0.31976	-0.35272	-0.20428	0.85529	21.5	13111	90
2024-10-24 22:29:18.724	WT901BLE68(B2C0FB98454F)	-0.656	-1.090	0.190	-43.518	15.686	-20.996	-78.29	20.73	115.70	38.416	28.224	-23.226	0.31976	-0.35272	-0.20428	0.85529	21.5	13111	90
2024-10-24 22:29:18.785	WT901BLE68(B2C0FB98454F)	-0.131	-0.918	-0.163	-37.476	30.151	-25.452	-79.99	17.72	110.73	38.416	28.224	-23.226	0.33923	-0.45358	-0.47919	0.67041	21.5	13111	90
2024-10-24 22:29:18.906	WT901BLE68(B2C0FB98454F)	-0.176	-1.066	0.011	-48.035	-34.729	-1.587	-83.98	15.95	113.41	38.416	28.224	-23.226	0.33923	-0.45358	-0.47919	0.67041	21.5	13111	90
2024-10-24 22:29:19.4	WT901BLE68(B2C0FB98454F)	-0.451	-1.065	0.002	39.063	45.959	10.681	-84.54	15.97	113.76	35.770	34.496	-14.504	0.33923	-0.45358	-0.47919	0.67041	21.5	13111	90
2024-10-24 22:29:19.114	WT901BLE68(B2C0FB98454F)	-0.169	-0.966	0.074	46.326	-21.057	30.640	-80.23	17.79	111.60	35.770	34.496	-14.504	0.33923	-0.45358	-0.47919	0.67041	21.5	13111	90
2024-10-24 22:29:19.205	WT901BLE68(B2C0FB98454F)	-0.340	-0.671	0.077	124.695	-45.227	65.063	-69.82	21.64	119.59	35.770	34.496	-14.504	0.31638	-0.38358	-0.33694	0.79947	21.5	13111	90
2024-10-24 22:29:19.325	WT901BLE68(B2C0FB98454F)	-0.234	-0.817	0.286	111.328	-17.883	53.833	-55.50	24.42	124.29	35.770	34.496	-14.504	0.31638	-0.38358	-0.33694	0.79947	21.5	13111	90
2024-10-24 22:29:19.385	WT901BLE68(B2C0FB98454F)	-0.784	-0.635	0.583	125.671	-96.985	74.951	-40.25	25.55	134.95	39.102	2.058	-44.100	0.31638	-0.38358	-0.33694	0.79947	21.5	13111	90
2024-10-24 22:29:19.505	WT901BLE68(B2C0FB98454F)	-0.655	-0.198	0.703	117.859	-49.011	81.970	-24.07	28.10	143.37	39.102	2.058	-44.100	0.31638	-0.38358	-0.33694	0.79947	21.5	13111	90
2024-10-24 22:29:19.602	WT901BLE68(B2C0FB98454F)	-0.422	0.019	0.905	106.812	-39.551	71.167	-9.01	27.03	152.70	39.102	2.058	-44.100	0.18579	-0.20865	0.02789	0.95972	21.5	13111	90
2024-10-24 22:29:19.714	WT901BLE68(B2C0FB98454F)	-0.419	0.268	1.173	70.984	-43.579	53.162	2.62	22.63	160.37	39.102	2.058	-44.100	0.18579	-0.20865	0.02789	0.95972	21.5	13111	90
2024-10-24 22:29:19.805	WT901BLE68(B2C0FB98454F)	-0.487	0.426	1.379	-5.371	-3.296	16.113	6.95	20.41	162.80	27.734	-26.166	-45.570	0.18579	-0.20865	0.02789	0.95972	21.5	13111	90
2024-10-24 22:29:19.925	WT901BLE68(B2C0FB98454F)	-0.451	0.133	1.266	-78.369	33.447	-32.349	1.72	22.29	160.68	27.734	-26.166	-45.570	0.18579	-0.20865	0.02789	0.95972	21.5	13111	90
2024-10-24 22:29:20.14	WT901BLE68(B2C0FB98454F)	-0.624	-0.073	0.962	-111.389	84.534	-68.665	-10.68	28.18	153.73	27.734	-26.166	-45.570	0.24496	-0.31375	-0.10071	0.91174	21.5	13111	90
2024-10-24 22:29:20.135	WT901BLE68(B2C0FB98454F)	-0.438	-0.422	0.705	-100.708	50.354	-111.023	-26.43	31.61	140.27	27.734	-26.166	-45.570	0.24496	-0.31375	-0.10071	0.91174	21.5	13111	90
2024-10-24 22:29:20.203	WT901BLE68(B2C0FB98454F)	-0.244	-0.340	0.310	-137.329	38.574	-120.178	-43.84	28.17	126.81	39.984	18.620	-33.908	0.24496	-0.31375	-0.10071	0.91174	21.5	13111	90
2024-10-24 22:29:20.314	WT901BLE68(B2C0FB98454F)	-0.075	-0.455	0.182	-177.002	50.537	-83.252	-63.06	22.46	117.33	39.984	18.620	-33.908	0.24496	-0.31375	-0.10071	0.91174	21.5	13111	90
2024-10-24 22:29:20.406	WT901BLE68(B2C0FB98454F)	-0.294	-1.116	0.245	-64.819	2.930	-50.293	-79.27	17.82	111.73	39.984	18.620	-33.908	0.35568	-0.45087	-0.48523	0.65927	21.5	13111	90
2024-10-24 22:29:20.525	WT901BLE68(B2C0FB98454F)	-0.259	-1.094	-0.021	0.366	22.644	-4.822	-82.58	14.42	110.45	39.984	18.620	-33.908	0.35568	-0.45087	-0.48523	0.65927	21.5	13111	90
2024-10-24 22:29:20.614	WT901BLE68(B2C0FB98454F)	-0.258	-0.961	0.068	15.808	18.860	9.094	-81.35	14.93	108.34	35.182	34.888	-14.406	0.35568	-0.45087	-0.48523	0.65927	21.5	13111	90
2024-10-24 22:29:20.735	WT901BLE68(B2C0FB98454F)	-0.288	-1.022	0.111	12.512	-17.578	12.451	-80.74	15.81	108.63	35.182	34.888	-14.406	0.35568	-0.45087	-0.48523	0.65927	21.5	13111	90
2024-10-24 22:29:20.803	WT901BLE68(B2C0FB98454F)	-0.161	-0.973	0.189	35.767	-29.785	31.006	-78.13	17.49	111.67	35.182	34.888	-14.406	0.33228	-0.42044	-0.42078	0.73187	21.5	13111	90
2024-10-24 22:29:20.914	WT901BLE68(B2C0FB98454F)	-0.253	-0.778	0.380	109.375	-98.511	46.082	-69.15	19.82	119.08	35.182	34.888	-14.406	0.33228	-0.42044	-0.42078	0.73187	21.5	13111	90
2024-10-24 22:29:21.5	WT901BLE68(B2C0FB98454F)	-0.437	-0.723	0.462	135.559	-1.465	40.955	-55.69	21.86	125.75	37.926	15.190	-40.670	0.33228	-0.42044	-0.42078	0.73187	21.5	13111	90
2024-10-24 22:29:21.124	WT901BLE68(B2C0FB98454F)	-0.492	-0.509	0.458	110.535	-47.241	64.209	-42.32	22.43	133.78	37.926	15.190	-40.670	0.33228	-0.42044	-0.42078	0.73187	21.5	13111	90
2024-10-24 22:29:21.214	WT901BLE68(B2C0FB98454F)	-0.566	-0.287	0.753	111.694	-32.410	75.806	-27.94	25.66	142.04	37.926	15.190	-40.670	0.33228	-0.42044	-0.42078	0.73187	21.5	13111	90
2024-10-24 22:29:21.334	WT901BLE68(B2C0FB98454F)	-0.345	-0.144	0.914	112.549	-45.898	68.970	-13.19	25.54	150.88	37.926	15.190	-40.670	0.21860	-0.24103	-0.05466	0.94394	21.5	13111	90
2024-10-24 22:29:21.405	WT901BLE68(B2C0FB98454F)	-0.498	0.122	1.219	81.909	-44.739	65.979	-0.85	21.98	159.42	27.930	-24.990	-45.962	0.21860	-0.24103	-0.05466	0.94394	21.5	13111	90
2024-10-24 22:29:21.545	WT901BLE68(B2C0FB98454F)	-0.457	0.400	1.291	24.292	-9.827	13.550	5.93	19.47	162.83	27.930	-24.990	-45.962	0.21860	-0.24103	-0.05466	0.94394	21.5	13111	90
2024-10-24 22:29:21.605	WT901BLE68(B2C0FB98454F)	-0.460	0.310	1.264	-55.542	13.550	-20.325	4.15	19.92	161.92	27.930	-24.990	-45.962	0.17853	-0.20224	0.00769	0.96286	21.5	13111	90
2024-10-24 22:29:21.725	WT901BLE68(B2C0FB98454F)	-0.519	0.112	1.043	-106.934	74.646	-38.208	-5.16	24.11	157.37	27.930	-24.990	-45.962	0.17853	-0.20224	0.00769	0.96286	21.5	13111	90
2024-10-24 22:29:21.814	WT901BLE68(B2C0FB98454F)	-0.524	-0.284	0.858	-95.398	74.158	-93.872	-19.07	29.96	146.69	40.082	-0.196	-42.924	0.17853	-0.20224	0.00769	0.96286	21.5	13111	90
2024-10-24 22:29:21.935	WT901BLE68(B2C0FB98454F)	-0.323	-0.447	0.521	-113.953	35.461	-119.873	-35.13	28.70	132.24	40.082	-0.196	-42.924	0.17853	-0.20224	0.00769	0.96286	21.5	13111	90
2024-10-24 22:29:22.26	WT901BLE68(B2C0FB98454F)	-0.142	-0.371	0.260	-147.644	24.536	-108.032	-52.15	23.77	121.04	40.082	-0.196	-42.924	0.17853	-0.20224	0.00769	0.96286	21.5	13111	90
2024-10-24 22:29:22.145	WT901BLE68(B2C0FB98454F)	-0.142	-0.618	0.244	-176.392	39.368	-71.716	-70.93	19.30	114.34	40.082	-0.196	-42.924	0.35300	-0.42731	-0.41299	0.72256	21.5	13111	90
2024-10-24 22:29:22.205	WT901BLE68(B2C0FB98454F)	-0.263	-1.116	0.170	-44.128	19.043	-49.011	-80.06	13.99	110.67	33.908	35.182	-15.778	0.35300	-0.42731	-0.41299	0.72256	21.5	13111	90
2024-10-24 22:29:22.325	WT901BLE68(B2C0FB98454F)	-0.142	-0.807	0.134	36.255	25.940	6.714	-79.52	13.66	108.25	33.908	35.182	-15.778	0.35300	-0.42731	-0.41299	0.72256	21.5	13111	90
2024-10-24 22:29:22.414	WT901BLE68(B2C0FB98454F)	-0.207	-1.024	0.070	-29.663	-15.625	-5.859	-80.42	13.43	107.19	33.908	35.182	-15.778	0.38715	-0.46017	-0.46976	0.64621	21.5	13111	90
2024-10-24 22:29:22.535	WT901BLE68(B2C0FB98454F)	-0.286	-0.993	0.111	13.672	34.973	4.150	-81.83	13.43	106.19	33.908	35.182	-15.778	0.38715	-0.46017	-0.46976	0.64621	21.5	13111	90
2024-10-24 22:29:22.625	WT901BLE68(B2C0FB98454F)	-0.151	-0.960	0.058	-7.813	-3.418	4.333	-81.85	13.71	104.97	33.908	35.182	-15.778	0.38715	-0.46017	-0.46976	0.64621	21.5	13111	90
2024-10-24 22:29:22.745	WT901BLE68(B2C0FB98454F)	-0.236	-0.984	0.142	4.395	11.292	6.592	-82.47	14.39	105.35	34.790	35.574	-12.054	0.38715	-0.46017	-0.46976	0.64621	21.5	13111	90
2024-10-24 22:29:22.805	WT901BLE68(B2C0FB98454F)	-0.269	-0.921	0.132	-7.690	13.916	4.089	-82.71	14.81	103.73	34.790	35.574	-12.054	0.38715	-0.46017	-0.46976	0.64621	21.5	13111	90
2024-10-24 22:29:22.955	WT901BLE68(B2C0FB98454F)	-0.227	-0.984	0.134	-21.057	-0.793	8.972	-84.40	15.27	103.55	34.790	35.574	-12.054	0.38217	-0.49078	-0.46378	0.63077	21.5	13111	90
2024-10-24 22:29:23.14	WT901BLE68(B2C0FB98454F)	-0.264	-0.952	0.050	-22.705	-0.305	14.221	-86.25	16.32	103.91	37.436	34.692	-6.468	0.38217	-0.49078	-0.46378	0.63077	21.5	13111	90
2024-10-24 22:29:23.135	WT901BLE68(B2C0FB98454F)	-0.363	-0.958	-0.067	-24.353	-5.737	15.198	-88.41	17.62	103.97	37.436	34.692	-6.468	0.38217	-0.49078	-0.46378	0.63077	21.5	13111	90
2024-10-24 22:29:23.225	WT901BLE68(B2C0FB98454F)	-0.476	-0.938	-0.121	-16.541	-2.747	13.428	-90.54	18.87	104.25	37.436	34.692	-6.468	0.31842	-0.52921	-0.48694	0.61755	21.5	13111	90
2024-10-24 22:29:23.345	WT901BLE68(B2C0FB98454F)	-0.417	-0.906	-0.135	-11.902	-6.348	12.024	-91.98	20.15	104.65	37.436	34.692	-6.468	0.31842	-0.52921	-0.48694	0.61755	21.5	13111	90
2024-10-24 22:29:23.436	WT901BLE68(B2C0FB98454F)	-0.379	-0.896	-0.158	-8.362	-12.085	8.545	-92.88	21.49	105.69	37.436	34.692	-6.468	0.31842	-0.52921	-0.48694	0.61755	21.5	13111	90
2024-10-24 22:29:23.555	WT901BLE68(B2C0FB98454F)	-0.424	-0.925	-0.077	-8.423	-13.611	3.723	-93.62	22.38	107.14	41.160	32.438	-2.450	0.31842	-0.52921	-0.48694	0.61755	21.5	13111	90
2024-10-24 22:29:23.614	WT901BLE68(B2C0FB98454F)	-0.385	-0.914	-0.114	-6.592	-13.000	1.404	-93.96	22.74	108.30	41.160	32.438	-2.450	0.26920	-0.52753	-0.50623	0.62680	21.5	13111	90
2024-10-24 22:29:23.735	WT901BLE68(B2C0FB98454F)	-0.385	-0.918	-0.119	-0.244	-3.296	-0.305	-94.14	22.88	108.92	41.160	32.438	-2.450	0.26920	-0.52753	-0.50623	0.62680	21.5	13111	90
2024-10-24 22:29:23.825	WT901BLE68(B2C0FB98454F)	-0.411	-0.938	-0.067	-0.183	-1.648	2.319	-94.23	22.98	109.13	41.454	31.948	-3.234	0.26920	-0.52753	-0.50623	0.62680	21.5	13111	90
2024-10-24 22:29:23.945	WT901BLE68(B2C0FB98454F)	-0.403	-0.914	-0.105	2.808	6.348	2.319	-94.23	23.21	108.29	41.454	31.948	-3.234	0.26920	-0.52753	-0.50623	0.62680	21.5	13111	90
2024-10-24 22:29:24.35	WT901BLE68(B2C0FB98454F)	-0.419	-0.923	-0.076	3.296	7.385	2.808	-94.35	23.48	107.41	41.454	31.948	-3.234	0.26920	-0.52753	-0.50623	0.62680	21.5	13111	90
